id,block,trialno_full,trialno_block,stim,choice,correct,response_time,feedback,money,run
subj_1,1,1,1,5,2,0,637.600000000006,11,20,1
subj_1,1,2,2,4,1,0,772.799999999988,-11,0,1
subj_1,1,3,3,6,2,1,1422.79999999999,1,0,1
subj_1,1,4,4,1,2,1,1076.70000000001,11,20,1
subj_1,1,5,5,4,1,0,2314,-11,0,1
subj_1,1,6,6,4,1,0,1360,-11,-20,1
subj_1,1,7,7,5,2,0,1723.89999999999,-1,-20,1
subj_1,1,8,8,2,2,0,2109.89999999999,-11,-40,1
subj_1,1,9,9,5,2,0,2195.79999999999,11,-20,1
subj_1,1,10,10,1,2,1,466.399999999994,11,0,1
subj_1,1,11,11,3,2,0,494.399999999994,-1,0,1
subj_1,1,12,12,6,2,1,2003,-11,-20,1
subj_1,1,13,13,2,1,1,845.600000000006,1,-20,1
subj_1,1,14,14,5,2,0,746.200000000012,11,0,1
subj_1,1,15,15,5,2,0,666.899999999994,11,20,1
subj_1,1,16,16,2,1,1,770.799999999988,1,20,1
subj_1,1,17,17,3,2,0,626.799999999988,-1,20,1
subj_1,1,18,18,6,1,0,1540.10000000001,1,20,1
subj_1,1,19,19,1,2,1,945.299999999988,11,40,1
subj_1,1,20,20,4,1,0,1388,-11,20,1
subj_1,1,21,21,4,2,1,973.200000000012,-11,0,1
subj_1,1,22,22,1,2,1,813.200000000012,11,20,1
subj_1,1,23,23,6,1,0,453.100000000006,-11,0,1
subj_1,1,24,24,1,2,1,1197.79999999999,11,20,1
subj_1,1,25,25,2,2,0,804.400000000023,-11,0,1
subj_1,1,26,26,2,1,1,1037,1,0,1
subj_1,1,27,27,6,2,1,564.299999999988,-11,-20,1
subj_1,1,28,28,1,2,1,416.299999999988,11,0,1
subj_1,1,29,29,1,2,1,334.200000000012,11,20,1
subj_1,1,30,30,3,1,1,313.5,11,40,1
subj_1,1,31,31,3,2,0,663.5,11,60,1
subj_1,1,32,32,3,2,0,519.400000000023,11,80,1
subj_1,1,33,33,4,2,1,469.400000000023,-11,60,1
subj_1,1,34,34,4,2,1,1267.29999999999,1,60,1
subj_1,1,35,35,5,2,0,593.299999999988,-1,60,1
subj_1,1,36,36,3,2,0,721.900000000023,-1,60,1
subj_1,1,37,37,4,1,0,2237.90000000002,1,60,1
subj_1,1,38,38,3,2,0,1067.09999999998,-1,60,1
subj_1,1,39,39,3,2,0,767.099999999977,11,80,1
subj_1,1,40,40,6,1,0,495,1,80,1
subj_1,1,41,41,4,2,1,741.700000000012,1,80,1
subj_1,1,42,42,4,1,0,2075,-11,60,1
subj_1,1,43,43,2,1,1,1898.90000000002,-11,40,1
subj_1,1,44,44,1,2,1,535.5,-1,40,1
subj_1,1,45,45,2,2,0,664.799999999988,-11,20,1
subj_1,1,46,46,2,1,1,1308.79999999999,1,20,1
subj_1,1,47,47,2,2,0,1147.40000000002,-11,0,1
subj_1,1,48,48,1,2,1,390,11,20,1
subj_1,1,49,49,6,1,0,249.299999999988,1,20,1
subj_1,1,50,50,1,2,1,439.900000000023,11,40,1
subj_1,1,51,51,6,1,0,287.200000000012,-11,20,1
subj_1,1,52,52,3,2,0,550.5,-1,20,1
subj_1,1,53,53,5,2,0,807.099999999977,-1,20,1
subj_1,1,54,54,2,1,1,1319.70000000001,1,20,1
subj_1,1,55,55,5,2,0,409.700000000012,-1,20,1
subj_1,1,56,56,5,2,0,771.599999999977,11,40,1
subj_1,1,57,57,6,1,0,1453.69999999995,-11,20,1
subj_1,1,58,58,5,2,0,666.200000000012,-1,20,1
subj_1,1,59,59,6,2,1,466.200000000012,1,20,1
subj_1,1,60,60,3,1,1,390.199999999953,11,40,1
subj_1,2,61,1,6,2,1,1430.69999999995,1,0,1
subj_1,2,62,2,3,1,1,340,-1,0,1
subj_1,2,63,3,4,2,1,383.299999999988,1,0,1
subj_1,2,64,4,5,1,1,226.599999999977,-1,0,1
subj_1,2,65,5,5,2,0,345.899999999965,11,20,1
subj_1,2,66,6,3,2,0,402.5,11,40,1
subj_1,2,67,7,6,1,0,635,1,40,1
subj_1,2,68,8,5,2,0,328.399999999965,-1,40,1
subj_1,2,69,9,4,2,1,1373.69999999995,1,40,1
subj_1,2,70,10,3,2,0,463.699999999953,-1,40,1
subj_1,2,71,11,1,1,0,595.599999999977,11,60,1
subj_1,2,72,12,2,2,0,636.29999999993,-11,40,1
subj_1,2,73,13,1,2,1,473.599999999977,11,60,1
subj_1,2,74,14,2,1,1,609.5,1,60,1
subj_1,2,75,15,1,1,0,753.400000000023,-1,60,1
subj_1,2,76,16,6,2,1,450.099999999977,1,60,1
subj_1,2,77,17,3,1,1,2250.69999999995,11,80,1
subj_1,2,78,18,4,2,1,2051.29999999993,1,80,1
subj_1,2,79,19,1,1,0,1275.90000000002,-1,80,1
subj_1,2,80,20,6,1,0,1259.90000000002,1,80,1
subj_1,2,81,21,5,2,0,1375.90000000002,11,100,1
subj_1,2,82,22,1,2,1,975.79999999993,11,120,1
subj_1,2,83,23,4,2,1,1513.69999999995,-11,100,1
subj_1,2,84,24,1,1,0,1765.69999999995,-1,100,1
subj_1,2,85,25,4,2,1,2143.69999999995,1,100,1
subj_1,2,86,26,3,2,0,900.29999999993,-1,100,1
subj_1,2,87,27,4,1,0,1686.90000000002,1,100,1
subj_1,2,88,28,3,2,0,1012.19999999995,-1,100,1
subj_1,2,89,29,3,1,1,1474.09999999998,11,120,1
subj_1,2,90,30,5,2,0,1446.09999999998,-1,120,1
subj_1,2,91,31,1,2,1,1508.69999999995,11,140,1
subj_1,2,92,32,6,2,1,1467.29999999993,-11,120,1
subj_1,2,93,33,2,2,0,1161.29999999993,-11,100,1
subj_1,2,94,34,2,2,0,2131.19999999995,1,100,1
subj_1,2,95,35,4,1,0,1318.5,-11,80,1
subj_1,2,96,36,6,1,0,1114.40000000002,1,80,1
subj_1,2,97,37,6,1,0,924.400000000023,-11,60,1
subj_1,2,98,38,1,2,1,1568.29999999993,11,80,1
subj_1,2,99,39,6,2,1,1024.29999999993,1,80,1
subj_1,2,100,40,5,2,0,1714.19999999995,-1,80,1
subj_1,2,101,41,4,1,0,2200.19999999995,1,80,1
subj_1,2,102,42,5,2,0,1136.79999999993,-1,80,1
subj_1,2,103,43,6,1,0,1522.09999999998,1,80,1
subj_1,2,104,44,3,2,0,1460,11,100,1
subj_1,2,105,45,1,2,1,1852,11,120,1
subj_1,2,106,46,2,2,0,1404.59999999998,-11,100,1
subj_1,2,107,47,3,2,0,1951.19999999995,-1,100,1
subj_1,2,108,48,2,9,9,9999,9,100,1
subj_1,2,109,49,2,2,0,1202.40000000002,-11,80,1
subj_1,2,110,50,4,1,0,1009.09999999998,-11,60,1
subj_1,2,111,51,2,1,1,1287.69999999995,1,60,1
subj_1,2,112,52,3,2,0,797,-1,60,1
subj_1,2,113,53,5,2,0,1151.59999999998,-1,60,1
subj_1,2,114,54,2,1,1,1746.19999999995,1,60,1
subj_1,2,115,55,5,2,0,802.79999999993,11,80,1
subj_1,2,116,56,5,2,0,1289.40000000002,11,100,1
subj_1,2,117,57,6,1,0,1324.69999999995,-11,80,1
subj_1,2,118,58,1,1,0,1170.69999999995,-1,80,1
subj_1,2,119,59,2,1,1,1806.59999999998,1,80,1
subj_1,2,120,60,4,2,1,1673.19999999995,1,80,1
subj_1,3,121,1,2,1,1,1494.40000000002,1,0,1
subj_1,3,122,2,6,1,0,1723,1,0,1
subj_1,3,123,3,5,2,0,1012.90000000002,11,20,1
subj_1,3,124,4,4,1,0,2282.90000000002,1,20,1
subj_1,3,125,5,5,2,0,896.199999999953,-1,20,1
subj_1,3,126,6,3,2,0,1766.79999999993,-1,20,1
subj_1,3,127,7,3,9,9,9999,9,20,1
subj_1,3,128,8,5,2,0,723.29999999993,-1,20,1
subj_1,3,129,9,1,2,1,1437.29999999993,11,40,1
subj_1,3,130,10,2,2,0,1028.59999999998,-11,20,1
subj_1,3,131,11,2,2,0,1001.90000000002,-11,0,1
subj_1,3,132,12,4,1,0,1026.5,-11,-20,1
subj_1,3,133,13,2,2,0,867.79999999993,-11,-40,1
subj_1,3,134,14,6,1,0,1419.69999999995,-11,-60,1
subj_1,3,135,15,3,2,0,803.699999999953,-1,-60,1
subj_1,3,136,16,6,2,1,710.29999999993,1,-60,1
subj_1,3,137,17,6,2,1,856.199999999953,-11,-80,1
subj_1,3,138,18,3,2,0,1176.90000000002,-1,-80,1
subj_1,3,139,19,2,1,1,1234.19999999995,1,-80,1
subj_1,3,140,20,5,1,1,683.400000000023,-1,-80,1
subj_1,3,141,21,5,2,0,950.699999999953,11,-60,1
subj_1,3,142,22,6,1,0,1233.29999999993,-11,-80,1
subj_1,3,143,23,2,2,0,718.599999999977,-11,-100,1
subj_1,3,144,24,5,1,1,600.699999999953,-1,-100,1
subj_1,3,145,25,3,2,0,1363.19999999995,11,-80,1
subj_1,3,146,26,4,1,0,1059.19999999995,-11,-100,1
subj_1,3,147,27,3,2,0,1465.79999999993,-1,-100,1
subj_1,3,148,28,4,2,1,1271.79999999993,1,-100,1
subj_1,3,149,29,3,2,0,1171.69999999995,-1,-100,1
subj_1,3,150,30,2,1,1,1699.59999999998,-11,-120,1
subj_1,3,151,31,1,2,1,642.199999999953,11,-100,1
subj_1,3,152,32,5,2,0,729.599999999977,11,-80,1
subj_1,3,153,33,1,1,0,1018.79999999993,-1,-80,1
subj_1,3,154,34,1,2,1,1042.79999999993,11,-60,1
subj_1,3,155,35,4,1,0,907.400000000023,-11,-80,1
subj_1,3,156,36,3,1,1,1050,11,-60,1
subj_1,3,157,37,3,2,0,690.600000000093,-1,-60,1
subj_1,3,158,38,2,2,0,1189.90000000014,-11,-80,1
subj_1,3,159,39,4,1,0,925.300000000047,-11,-100,1
subj_1,3,160,40,1,2,1,723.100000000093,-1,-100,1
subj_1,3,161,41,3,2,0,1135.10000000009,11,-80,1
subj_1,3,162,42,5,2,0,1092.40000000014,-1,-80,1
subj_1,3,163,43,6,2,1,1201.70000000019,-11,-100,1
subj_1,3,164,44,1,1,0,1560.39999999991,-1,-100,1
subj_1,3,165,45,1,2,1,648.399999999907,11,-80,1
subj_1,3,166,46,6,2,1,1401,-11,-100,1
subj_1,3,167,47,1,1,0,985.5,-1,-100,1
subj_1,3,168,48,4,2,1,888.899999999907,1,-100,1
subj_1,3,169,49,5,2,0,662.199999999953,-1,-100,1
subj_1,3,170,50,6,1,0,1796.09999999986,1,-100,1
subj_1,3,171,51,6,1,0,806.699999999953,-11,-120,1
subj_1,3,172,52,5,2,0,631.399999999907,-1,-120,1
subj_1,3,173,53,1,2,1,662.5,11,-100,1
subj_1,3,174,54,4,1,0,1310.59999999986,1,-100,1
subj_1,3,175,55,1,2,1,788.5,11,-80,1
subj_1,3,176,56,2,2,0,959.800000000047,-11,-100,1
subj_1,3,177,57,4,1,0,871.800000000047,1,-100,1
subj_1,3,178,58,4,1,0,1079.69999999995,-11,-120,1
subj_1,3,179,59,2,2,0,855,-11,-140,1
subj_1,3,180,60,6,2,1,749.699999999953,1,-140,1
subj_1,4,181,1,1,2,1,1396.09999999986,11,20,1
subj_1,4,182,2,5,2,0,1074.69999999995,-1,20,1
subj_1,4,183,3,6,2,1,800.699999999953,1,20,1
subj_1,4,184,4,2,1,1,1003.30000000005,1,20,1
subj_1,4,185,5,1,2,1,898,11,40,1
subj_1,4,186,6,1,2,1,576.59999999986,11,60,1
subj_1,4,187,7,3,2,0,1113.89999999991,-1,60,1
subj_1,4,188,8,6,1,0,743.800000000047,1,60,1
subj_1,4,189,9,1,2,1,660.399999999907,11,80,1
subj_1,4,190,10,4,2,1,1292.39999999991,1,80,1
subj_1,4,191,11,3,2,0,755.699999999953,-1,80,1
subj_1,4,192,12,6,1,0,716.300000000047,-11,60,1
subj_1,4,193,13,6,2,1,974.300000000047,-11,40,1
subj_1,4,194,14,6,1,0,1728.19999999995,1,40,1
subj_1,4,195,15,1,2,1,685.5,11,60,1
subj_1,4,196,16,5,2,0,826.800000000047,-1,60,1
subj_1,4,197,17,3,2,0,664.09999999986,11,80,1
subj_1,4,198,18,1,2,1,880,11,100,1
subj_1,4,199,19,4,1,0,1287.30000000005,-11,80,1
subj_1,4,200,20,1,2,1,1940.59999999986,11,100,1
subj_1,4,201,21,4,1,0,889.899999999907,-11,80,1
subj_1,4,202,22,2,1,1,1357.19999999995,1,80,1
subj_1,4,203,23,5,2,0,1437.80000000005,-1,80,1
subj_1,4,204,24,3,1,1,901,11,100,1
subj_1,4,205,25,6,1,0,1435.69999999995,-11,80,1
subj_1,4,206,26,6,1,0,1233,1,80,1
subj_1,4,207,27,6,1,0,992.199999999953,-11,60,1
subj_1,4,208,28,6,2,1,1311.5,-11,40,1
subj_1,4,209,29,1,2,1,885.5,-1,40,1
subj_1,4,210,30,5,1,1,682.800000000047,-1,40,1
subj_1,4,211,31,4,2,1,952.09999999986,1,40,1
subj_1,4,212,32,1,2,1,1178.69999999995,11,60,1
subj_1,4,213,33,5,1,1,1302,11,80,1
subj_1,4,214,34,5,1,1,842.59999999986,-1,80,1
subj_1,4,215,35,3,2,0,1119.19999999995,11,100,1
subj_1,4,216,36,4,1,0,1107.19999999995,-11,80,1
subj_1,4,217,37,4,2,1,1455.80000000005,1,80,1
subj_1,4,218,38,5,1,1,1140.39999999991,11,100,1
subj_1,4,219,39,2,1,1,1421.69999999995,-11,80,1
subj_1,4,220,40,2,2,0,1491.59999999986,-11,60,1
subj_1,4,221,41,2,1,1,1080.89999999991,1,60,1
subj_1,4,222,42,4,1,0,1382.19999999995,1,60,1
subj_1,4,223,43,3,2,0,1815.5,-1,60,1
subj_1,4,224,44,2,1,1,1585.39999999991,1,60,1
subj_1,4,225,45,3,2,0,1234.69999999995,-1,60,1
subj_1,4,226,46,3,1,1,1266,-1,60,1
subj_1,4,227,47,4,1,0,1089.89999999991,1,60,1
subj_1,4,228,48,4,1,0,833.199999999953,-11,40,1
subj_1,4,229,49,2,2,0,1680.5,-11,20,1
subj_1,4,230,50,6,1,0,699.800000000047,-11,0,1
subj_1,4,231,51,1,2,1,898.399999999907,11,20,1
subj_1,4,232,52,5,2,0,969,11,40,1
subj_1,4,233,53,3,2,0,1347,-1,40,1
subj_1,4,234,54,5,1,1,1091.59999999986,-1,40,1
subj_1,4,235,55,2,2,0,1510.89999999991,-11,20,1
subj_1,4,236,56,3,1,1,924.800000000047,11,40,1
subj_1,4,237,57,5,1,1,1014.80000000005,-1,40,1
subj_1,4,238,58,4,1,0,1112.69999999995,1,40,1
subj_1,4,239,59,2,2,0,834.699999999953,-11,20,1
subj_1,4,240,60,2,2,0,1744,-11,0,1
subj_1,5,1,1,3,2,0,2136.7,-1,0,2
subj_1,5,2,2,6,1,0,1228,-11,-20,2
subj_1,5,3,3,4,2,1,1289.3,-11,-40,2
subj_1,5,4,4,5,2,0,1208.60000000001,-1,-40,2
subj_1,5,5,5,5,2,0,1023.2,-1,-40,2
subj_1,5,6,6,3,2,0,815.100000000006,-1,-40,2
subj_1,5,7,7,3,1,1,1237.10000000001,11,-20,2
subj_1,5,8,8,3,1,1,798.400000000009,11,0,2
subj_1,5,9,9,5,2,0,1662.90000000001,11,20,2
subj_1,5,10,10,3,1,1,810.899999999994,-1,20,2
subj_1,5,11,11,6,2,1,1106.89999999999,1,20,2
subj_1,5,12,12,2,2,0,1381.5,1,20,2
subj_1,5,13,13,5,2,0,1064.79999999999,11,40,2
subj_1,5,14,14,2,2,0,1278.69999999998,-11,20,2
subj_1,5,15,15,1,1,0,844,-1,20,2
subj_1,5,16,16,6,2,1,1452.59999999998,-11,0,2
subj_1,5,17,17,1,1,0,779.299999999988,-1,0,2
subj_1,5,18,18,5,2,0,884.5,-1,0,2
subj_1,5,19,19,1,2,1,1481.79999999999,11,20,2
subj_1,5,20,20,1,2,1,1005.09999999998,11,40,2
subj_1,5,21,21,4,1,0,807.699999999983,-11,20,2
subj_1,5,22,22,5,2,0,1312.39999999999,11,40,2
subj_1,5,23,23,4,1,0,1002.29999999999,-11,20,2
subj_1,5,24,24,5,2,0,1144.89999999999,11,40,2
subj_1,5,25,25,1,2,1,861.599999999977,11,60,2
subj_1,5,26,26,3,1,1,949.5,11,80,2
subj_1,5,27,27,2,2,0,1074.09999999998,-11,60,2
subj_1,5,28,28,2,1,1,1094.09999999998,1,60,2
subj_1,5,29,29,2,1,1,984.699999999983,1,60,2
subj_1,5,30,30,3,2,0,1164,11,80,2
subj_1,5,31,31,4,1,0,1535.89999999999,-11,60,2
subj_1,5,32,32,6,2,1,2339.19999999998,1,60,2
subj_1,5,33,33,1,2,1,1148.5,11,80,2
subj_1,5,34,34,3,2,0,911.099999999977,-1,80,2
subj_1,5,35,35,4,1,0,1499,1,80,2
subj_1,5,36,36,6,2,1,941.700000000012,1,80,2
subj_1,5,37,37,4,2,1,1342.89999999997,1,80,2
subj_1,5,38,38,4,1,0,2161.59999999998,-11,60,2
subj_1,5,39,39,2,2,0,1365.5,-11,40,2
subj_1,5,40,40,4,1,0,1049.5,1,40,2
subj_1,5,41,41,1,2,1,1090.09999999998,11,60,2
subj_1,5,42,42,6,1,0,1113.39999999997,1,60,2
subj_1,5,43,43,4,2,1,1083.29999999999,1,60,2
subj_1,5,44,44,2,1,1,1322.59999999998,1,60,2
subj_1,5,45,45,6,2,1,1568.59999999998,-11,40,2
subj_1,5,46,46,6,1,0,1268.5,1,40,2
subj_1,5,47,47,3,2,0,1186.5,11,60,2
subj_1,5,48,48,2,2,0,1809.79999999999,-11,40,2
subj_1,5,49,49,1,1,0,1857.70000000001,-1,40,2
subj_1,5,50,50,5,2,0,894.299999999988,-1,40,2
subj_1,5,51,51,5,2,0,748.899999999965,-1,40,2
subj_1,5,52,52,5,1,1,685.5,-1,40,2
subj_1,5,53,53,4,1,0,1220.79999999999,-11,20,2
subj_1,5,54,54,1,2,1,860.799999999988,11,40,2
subj_1,5,55,55,3,2,0,890.700000000012,-1,40,2
subj_1,5,56,56,1,2,1,870,-1,40,2
subj_1,5,57,57,2,1,1,1518,1,40,2
subj_1,5,58,58,2,1,1,1121.89999999997,1,40,2
subj_1,5,59,59,6,2,1,1483.89999999997,-11,20,2
subj_1,5,60,60,6,1,0,1233.20000000001,-11,0,2
subj_1,6,61,1,1,2,1,1352.29999999999,11,20,2
subj_1,6,62,2,3,1,1,996.899999999965,11,40,2
subj_1,6,63,3,6,1,0,1077.59999999998,-11,20,2
subj_1,6,64,4,6,2,1,690.899999999965,1,20,2
subj_1,6,65,5,1,2,1,1192.09999999998,11,40,2
subj_1,6,66,6,3,1,1,807.399999999965,11,60,2
subj_1,6,67,7,4,1,0,1286,-11,40,2
subj_1,6,68,8,2,1,1,1681.40000000002,1,40,2
subj_1,6,69,9,1,2,1,780.599999999977,11,60,2
subj_1,6,70,10,6,1,0,1527.89999999997,1,60,2
subj_1,6,71,11,3,1,1,1637.20000000001,-1,60,2
subj_1,6,72,12,1,2,1,588.5,11,80,2
subj_1,6,73,13,2,1,1,1563.70000000001,1,80,2
subj_1,6,74,14,3,1,1,1031.70000000001,11,100,2
subj_1,6,75,15,6,1,0,1061,1,100,2
subj_1,6,76,16,6,1,0,1220.90000000002,1,100,2
subj_1,6,77,17,5,2,0,1678.90000000002,11,120,2
subj_1,6,78,18,4,2,1,2236.20000000007,-11,100,2
subj_1,6,79,19,3,1,1,1057.40000000002,11,120,2
subj_1,6,80,20,1,2,1,982,-1,120,2
subj_1,6,81,21,1,2,1,725.300000000047,11,140,2
subj_1,6,82,22,2,1,1,1969.30000000005,-11,120,2
subj_1,6,83,23,4,2,1,1147.20000000007,1,120,2
subj_1,6,84,24,4,2,1,863.900000000023,1,120,2
subj_1,6,85,25,3,1,1,887.800000000047,-1,120,2
subj_1,6,86,26,1,2,1,1015.10000000009,11,140,2
subj_1,6,87,27,5,1,1,1359.09999999998,-1,140,2
subj_1,6,88,28,4,2,1,1083.80000000005,1,140,2
subj_1,6,89,29,5,2,0,1065.09999999998,-1,140,2
subj_1,6,90,30,6,1,0,1327,1,140,2
subj_1,6,91,31,2,1,1,1488.20000000007,1,140,2
subj_1,6,92,32,5,2,0,1303.59999999998,-1,140,2
subj_1,6,93,33,1,2,1,916.20000000007,11,160,2
subj_1,6,94,34,6,1,0,1022.09999999998,-11,140,2
subj_1,6,95,35,6,2,1,1262.09999999998,1,140,2
subj_1,6,96,36,1,2,1,878,11,160,2
subj_1,6,97,37,4,2,1,1547.30000000005,-11,140,2
subj_1,6,98,38,2,1,1,1183.90000000002,1,140,2
subj_1,6,99,39,5,2,0,1193.20000000007,-1,140,2
subj_1,6,100,40,4,1,0,1027.90000000002,1,140,2
subj_1,6,101,41,1,2,1,1029.09999999998,11,160,2
subj_1,6,102,42,2,1,1,1068.40000000002,1,160,2
subj_1,6,103,43,6,2,1,1602.40000000002,-11,140,2
subj_1,6,104,44,2,1,1,1865,1,140,2
subj_1,6,105,45,5,2,0,888.900000000023,-1,140,2
subj_1,6,106,46,3,1,1,972.20000000007,-1,140,2
subj_1,6,107,47,2,1,1,1256.20000000007,1,140,2
subj_1,6,108,48,3,1,1,798.70000000007,11,160,2
subj_1,6,109,49,4,2,1,743.400000000023,1,160,2
subj_1,6,110,50,2,1,1,872,1,160,2
subj_1,6,111,51,6,2,1,1358,1,160,2
subj_1,6,112,52,5,2,0,1434.59999999998,-1,160,2
subj_1,6,113,53,3,1,1,855.900000000023,11,180,2
subj_1,6,114,54,5,1,1,888.5,-1,180,2
subj_1,6,115,55,5,2,0,967.800000000047,11,200,2
subj_1,6,116,56,4,2,1,1065.80000000005,1,200,2
subj_1,6,117,57,5,1,1,981.70000000007,-1,200,2
subj_1,6,118,58,4,2,1,989,1,200,2
subj_1,6,119,59,2,1,1,884.300000000047,1,200,2
subj_1,6,120,60,3,1,1,767.599999999977,11,220,2
subj_1,7,121,1,3,1,1,822.599999999977,-1,0,2
subj_1,7,122,2,1,2,1,950.5,11,20,2
subj_1,7,123,3,1,2,1,699.20000000007,11,40,2
subj_1,7,124,4,3,1,1,593.800000000047,11,60,2
subj_1,7,125,5,4,2,1,924.400000000023,1,60,2
subj_1,7,126,6,3,1,1,658.400000000023,11,80,2
subj_1,7,127,7,4,2,1,761,1,80,2
subj_1,7,128,8,2,1,1,1120.90000000002,1,80,2
subj_1,7,129,9,3,1,1,812.900000000023,11,100,2
subj_1,7,130,10,6,1,0,798.900000000023,1,100,2
subj_1,7,131,11,1,2,1,1085.5,11,120,2
subj_1,7,132,12,2,2,0,1156.80000000005,-11,100,2
subj_1,7,133,13,3,1,1,845.400000000023,11,120,2
subj_1,7,134,14,3,1,1,700,11,140,2
subj_1,7,135,15,3,1,1,598.599999999977,-1,140,2
subj_1,7,136,16,2,2,0,1055.20000000007,1,140,2
subj_1,7,137,17,2,1,1,755.900000000023,1,140,2
subj_1,7,138,18,3,1,1,704.5,11,160,2
subj_1,7,139,19,5,2,0,1195.09999999998,-1,160,2
subj_1,7,140,20,5,2,0,665.70000000007,11,180,2
subj_1,7,141,21,4,2,1,2063.70000000007,1,180,2
subj_1,7,142,22,4,2,1,1205.59999999998,-11,160,2
subj_1,7,143,23,1,2,1,926.20000000007,11,180,2
subj_1,7,144,24,1,2,1,753.5,-1,180,2
subj_1,7,145,25,5,2,0,890.099999999977,-1,180,2
subj_1,7,146,26,5,1,1,1079.40000000002,11,200,2
subj_1,7,147,27,5,2,0,654.70000000007,-1,200,2
subj_1,7,148,28,5,2,0,699.300000000047,11,220,2
subj_1,7,149,29,2,2,0,800,-11,200,2
subj_1,7,150,30,5,1,1,992.599999999977,11,220,2
subj_1,7,151,31,4,2,1,623.20000000007,1,220,2
subj_1,7,152,32,6,2,1,951.099999999977,1,220,2
subj_1,7,153,33,4,1,0,915.800000000047,-11,200,2
subj_1,7,154,34,5,2,0,865.70000000007,11,220,2
subj_1,7,155,35,1,2,1,705.70000000007,11,240,2
subj_1,7,156,36,4,2,1,1204.30000000005,-11,220,2
subj_1,7,157,37,6,1,0,1166.90000000002,-11,200,2
subj_1,7,158,38,2,2,0,1390.90000000002,-11,180,2
subj_1,7,159,39,1,2,1,1344.09999999998,11,200,2
subj_1,7,160,40,2,1,1,724.800000000047,1,200,2
subj_1,7,161,41,6,1,0,878.70000000007,1,200,2
subj_1,7,162,42,6,1,0,1426,-11,180,2
subj_1,7,163,43,6,1,0,1241.29999999981,1,180,2
subj_1,7,164,44,1,2,1,1354.59999999986,11,200,2
subj_1,7,165,45,2,2,0,981.199999999953,-11,180,2
subj_1,7,166,46,2,2,0,920.5,-11,160,2
subj_1,7,167,47,4,2,1,1486.39999999991,-11,140,2
subj_1,7,168,48,1,2,1,657.699999999953,11,160,2
subj_1,7,169,49,2,1,1,1478.29999999981,1,160,2
subj_1,7,170,50,6,2,1,913.59999999986,1,160,2
subj_1,7,171,51,1,2,1,727.59999999986,11,180,2
subj_1,7,172,52,4,2,1,1052.89999999991,1,180,2
subj_1,7,173,53,3,1,1,1489.5,-1,180,2
subj_1,7,174,54,5,2,0,1086.79999999981,11,200,2
subj_1,7,175,55,6,2,1,806,-11,180,2
subj_1,7,176,56,6,1,0,854.699999999953,-11,160,2
subj_1,7,177,57,5,2,0,803.299999999814,11,180,2
subj_1,7,178,58,4,2,1,867.899999999907,1,180,2
subj_1,7,179,59,3,1,1,875.899999999907,11,200,2
subj_1,7,180,60,6,2,1,817.199999999953,-11,180,2
subj_1,8,181,1,4,2,1,1659.5,1,0,2
subj_1,8,182,2,6,1,0,1111.39999999991,-11,-20,2
subj_1,8,183,3,3,2,0,883.399999999907,-1,-20,2
subj_1,8,184,4,5,2,0,1610.69999999995,11,0,2
subj_1,8,185,5,3,1,1,1090.59999999986,-1,0,2
subj_1,8,186,6,2,2,0,703.899999999907,-11,-20,2
subj_1,8,187,7,1,2,1,836.59999999986,11,0,2
subj_1,8,188,8,5,2,0,933.799999999814,-1,0,2
subj_1,8,189,9,5,2,0,979.09999999986,11,20,2
subj_1,8,190,10,3,2,0,1358.39999999991,11,40,2
subj_1,8,191,11,1,2,1,857,11,60,2
subj_1,8,192,12,5,2,0,1023.80000000005,-1,60,2
subj_1,8,193,13,2,2,0,1367.69999999995,1,60,2
subj_1,8,194,14,4,1,0,1239.69999999995,-11,40,2
subj_1,8,195,15,4,2,1,1502.79999999981,1,40,2
subj_1,8,196,16,6,1,0,2131.60000000009,-11,20,2
subj_1,8,197,17,1,2,1,1108.80000000005,11,40,2
subj_1,8,198,18,6,2,1,1939.29999999981,-11,20,2
subj_1,8,199,19,4,2,1,1420.69999999995,1,20,2
subj_1,8,200,20,4,2,1,836.59999999986,-11,0,2
subj_1,8,201,21,1,2,1,721.899999999907,11,20,2
subj_1,8,202,22,6,2,1,1389.79999999981,-11,0,2
subj_1,8,203,23,3,2,0,1617.19999999995,11,20,2
subj_1,8,204,24,3,2,0,1031.10000000009,-1,20,2
subj_1,8,205,25,5,2,0,1608.39999999991,11,40,2
subj_1,8,206,26,3,2,0,843,-1,40,2
subj_1,8,207,27,3,2,0,863.699999999953,-1,40,2
subj_1,8,208,28,5,2,0,619.600000000093,-1,40,2
subj_1,8,209,29,2,2,0,973.600000000093,-11,20,2
subj_1,8,210,30,5,2,0,885.5,-1,20,2
subj_1,8,211,31,2,2,0,1060.80000000005,-11,0,2
subj_1,8,212,32,3,2,0,2272.80000000005,-1,0,2
subj_1,8,213,33,1,2,1,806.699999999953,11,20,2
subj_1,8,214,34,1,2,1,751.300000000047,11,40,2
subj_1,8,215,35,2,2,0,747.899999999907,-11,20,2
subj_1,8,216,36,2,1,1,1664.5,1,20,2
subj_1,8,217,37,4,2,1,732.5,-11,0,2
subj_1,8,218,38,3,2,0,1569.80000000005,-1,0,2
subj_1,8,219,39,2,2,0,1609.80000000005,-11,-20,2
subj_1,8,220,40,6,2,1,833.699999999953,-11,-40,2
subj_1,8,221,41,6,1,0,1547,-11,-60,2
subj_1,8,222,42,3,2,0,979.600000000093,-1,-60,2
subj_1,8,223,43,4,2,1,958.799999999814,1,-60,2
subj_1,8,224,44,5,1,1,1375.5,-1,-60,2
subj_1,8,225,45,1,2,1,859.5,-1,-60,2
subj_1,8,226,46,2,2,0,739.399999999907,-11,-80,2
subj_1,8,227,47,6,1,0,1268.69999999995,1,-80,2
subj_1,8,228,48,1,2,1,856.600000000093,11,-60,2
subj_1,8,229,49,2,1,1,1285.30000000005,1,-60,2
subj_1,8,230,50,1,2,1,652.600000000093,11,-40,2
subj_1,8,231,51,4,2,1,1227.19999999995,-11,-60,2
subj_1,8,232,52,5,1,1,1882.5,-1,-60,2
subj_1,8,233,53,4,1,0,1489.69999999995,-11,-80,2
subj_1,8,234,54,1,2,1,847,11,-60,2
subj_1,8,235,55,5,1,1,927.600000000093,11,-40,2
subj_1,8,236,56,2,1,1,912.899999999907,1,-40,2
subj_1,8,237,57,4,2,1,1332.89999999991,1,-40,2
subj_1,8,238,58,6,1,0,1128.19999999995,-11,-60,2
subj_1,8,239,59,6,2,1,1105.5,1,-60,2
subj_1,8,240,60,6,2,1,1374.10000000009,-11,-80,2
subj_2,1,1,1,3,2,1,1358,11,20,1
subj_2,1,2,2,4,1,1,1806.60000000001,1,20,1
subj_2,1,3,3,1,9,9,9999,9,20,1
subj_2,1,4,4,5,1,1,1315.89999999999,11,40,1
subj_2,1,5,5,2,2,1,1103.80000000002,1,40,1
subj_2,1,6,6,4,1,1,2142.39999999999,-11,20,1
subj_2,1,7,7,2,2,1,1251.70000000001,1,20,1
subj_2,1,8,8,4,2,0,1116.30000000002,-11,0,1
subj_2,1,9,9,4,1,1,974.300000000017,1,0,1
subj_2,1,10,10,1,2,0,1840.20000000001,-1,0,1
subj_2,1,11,11,5,1,1,1173.5,11,20,1
subj_2,1,12,12,5,2,0,1513.5,11,40,1
subj_2,1,13,13,3,2,1,1191.39999999999,11,60,1
subj_2,1,14,14,1,1,1,822.700000000012,11,80,1
subj_2,1,15,15,1,1,1,1020.59999999998,11,100,1
subj_2,1,16,16,3,2,1,1068.59999999998,-1,100,1
subj_2,1,17,17,1,1,1,778.599999999977,11,120,1
subj_2,1,18,18,3,2,1,1093.79999999999,11,140,1
subj_2,1,19,19,4,2,0,1020.5,-11,120,1
subj_2,1,20,20,5,1,1,906.399999999965,-1,120,1
subj_2,1,21,21,1,1,1,1045,11,140,1
subj_2,1,22,22,6,1,0,1173.69999999995,1,140,1
subj_2,1,23,23,2,2,1,917.599999999977,1,140,1
subj_2,1,24,24,4,1,1,1193.5,-11,120,1
subj_2,1,25,25,6,2,1,1112.19999999995,1,120,1
subj_2,1,26,26,6,2,1,1132.09999999998,1,120,1
subj_2,1,27,27,3,2,1,1009.39999999997,-1,120,1
subj_2,1,28,28,4,2,0,1191.39999999997,1,120,1
subj_2,1,29,29,4,2,0,754.599999999977,-11,100,1
subj_2,1,30,30,3,2,1,1381.19999999995,-1,100,1
subj_2,1,31,31,4,2,0,1584.5,-11,80,1
subj_2,1,32,32,6,2,1,1995.79999999999,-11,60,1
subj_2,1,33,33,6,1,0,794.399999999965,1,60,1
subj_2,1,34,34,1,1,1,749,11,80,1
subj_2,1,35,35,2,2,1,997.699999999953,1,80,1
subj_2,1,36,36,1,1,1,918.299999999988,11,100,1
subj_2,1,37,37,3,2,1,1042.29999999999,11,120,1
subj_2,1,38,38,6,2,1,1139.5,-11,100,1
subj_2,1,39,39,5,1,1,1406.79999999999,-1,100,1
subj_2,1,40,40,4,2,0,1727.39999999997,-11,80,1
subj_2,1,41,41,2,2,1,1000.69999999995,1,80,1
subj_2,1,42,42,3,2,1,1019.40000000002,11,100,1
subj_2,1,43,43,3,2,1,851.400000000023,11,120,1
subj_2,1,44,44,1,1,1,705.899999999965,11,140,1
subj_2,1,45,45,2,2,1,1232.5,1,140,1
subj_2,1,46,46,5,1,1,1081.79999999999,11,160,1
subj_2,1,47,47,5,1,1,695.099999999977,11,180,1
subj_2,1,48,48,2,2,1,729.699999999953,1,180,1
subj_2,1,49,49,5,1,1,799,-1,180,1
subj_2,1,50,50,6,1,0,1399.59999999998,1,180,1
subj_2,1,51,51,1,1,1,784.299999999988,-1,180,1
subj_2,1,52,52,2,2,1,937.599999999977,1,180,1
subj_2,1,53,53,2,2,1,708.900000000023,-11,160,1
subj_2,1,54,54,3,2,0,2511.5,-1,160,1
subj_2,1,55,55,5,1,1,817.399999999965,-1,160,1
subj_2,1,56,56,6,1,0,1241.29999999999,-11,140,1
subj_2,1,57,57,5,2,0,1312.70000000001,-1,140,1
subj_2,1,58,58,6,1,0,1490.70000000001,-11,120,1
subj_2,1,59,59,6,2,1,1318,1,120,1
subj_2,1,60,60,2,1,0,1335.79999999999,-11,100,1
subj_2,2,61,1,5,1,1,829,-1,0,1
subj_2,2,62,2,5,1,1,708.29999999993,-1,0,1
subj_2,2,63,3,4,1,1,1506.89999999991,-11,-20,1
subj_2,2,64,4,3,2,1,893.5,11,0,1
subj_2,2,65,5,4,2,0,1596.09999999998,-11,-20,1
subj_2,2,66,6,2,2,1,874.79999999993,1,-20,1
subj_2,2,67,7,3,2,1,826.699999999953,11,0,1
subj_2,2,68,8,4,1,1,722,1,0,1
subj_2,2,69,9,1,1,1,684,11,20,1
subj_2,2,70,10,4,1,1,1083.19999999995,1,20,1
subj_2,2,71,11,1,1,1,674.5,11,40,1
subj_2,2,72,12,5,1,1,1646.5,11,60,1
subj_2,2,73,13,6,2,1,1051.09999999998,1,60,1
subj_2,2,74,14,5,2,0,1775.69999999995,-1,60,1
subj_2,2,75,15,3,2,1,1119.69999999995,11,80,1
subj_2,2,76,16,5,1,1,857.599999999977,-1,80,1
subj_2,2,77,17,6,1,0,1098.19999999995,-11,60,1
subj_2,2,78,18,5,2,0,1254.89999999991,11,80,1
subj_2,2,79,19,3,2,1,719.5,-1,80,1
subj_2,2,80,20,4,1,1,867.399999999907,1,80,1
subj_2,2,81,21,4,1,1,679.399999999907,-11,60,1
subj_2,2,82,22,2,2,1,798.699999999953,1,60,1
subj_2,2,83,23,6,1,0,719.29999999993,1,60,1
subj_2,2,84,24,5,2,0,745.199999999953,-1,60,1
subj_2,2,85,25,5,1,1,747.899999999907,11,80,1
subj_2,2,86,26,6,1,0,1056.5,1,80,1
subj_2,2,87,27,2,2,1,807.099999999977,1,80,1
subj_2,2,88,28,6,1,0,637.699999999953,-11,60,1
subj_2,2,89,29,2,2,1,805,1,60,1
subj_2,2,90,30,6,2,1,951.599999999977,-11,40,1
subj_2,2,91,31,1,1,1,1120.29999999993,11,60,1
subj_2,2,92,32,4,1,1,670.199999999953,1,60,1
subj_2,2,93,33,2,2,1,898.199999999953,-11,40,1
subj_2,2,94,34,3,2,1,736.79999999993,11,60,1
subj_2,2,95,35,3,2,1,750.099999999977,11,80,1
subj_2,2,96,36,1,1,1,658.699999999953,11,100,1
subj_2,2,97,37,6,1,0,995.29999999993,1,100,1
subj_2,2,98,38,3,2,1,676,11,120,1
subj_2,2,99,39,3,2,1,641.199999999953,11,140,1
subj_2,2,100,40,1,1,1,694.5,11,160,1
subj_2,2,101,41,6,1,0,769.199999999953,-11,140,1
subj_2,2,102,42,4,1,1,701.099999999977,1,140,1
subj_2,2,103,43,1,1,1,647.699999999953,11,160,1
subj_2,2,104,44,4,1,1,636.29999999993,1,160,1
subj_2,2,105,45,2,2,1,1179.59999999998,1,160,1
subj_2,2,106,46,6,1,0,1092.89999999991,-11,140,1
subj_2,2,107,47,4,1,1,699.5,-11,120,1
subj_2,2,108,48,2,2,1,816.199999999953,1,120,1
subj_2,2,109,49,3,2,1,776.099999999977,-1,120,1
subj_2,2,110,50,1,1,1,681.399999999907,11,140,1
subj_2,2,111,51,5,1,1,628.699999999953,11,160,1
subj_2,2,112,52,2,2,1,660,1,160,1
subj_2,2,113,53,2,2,1,665.899999999907,1,160,1
subj_2,2,114,54,3,2,1,767.899999999907,-1,160,1
subj_2,2,115,55,1,1,1,547.899999999907,11,180,1
subj_2,2,116,56,1,1,1,844.5,-1,180,1
subj_2,2,117,57,6,2,1,937.099999999977,-11,160,1
subj_2,2,118,58,5,1,1,716.399999999907,-1,160,1
subj_2,2,119,59,2,2,1,794.29999999993,1,160,1
subj_2,2,120,60,1,1,1,605,11,180,1
subj_2,3,121,1,5,1,1,766.099999999977,-1,0,1
subj_2,3,122,2,6,2,1,1296.09999999998,1,0,1
subj_2,3,123,3,6,2,1,682.699999999953,-11,-20,1
subj_2,3,124,4,4,1,1,642,1,-20,1
subj_2,3,125,5,1,1,1,587.29999999993,11,0,1
subj_2,3,126,6,2,2,1,932.599999999977,1,0,1
subj_2,3,127,7,1,1,1,585.79999999993,11,20,1
subj_2,3,128,8,2,2,1,757.099999999977,-11,0,1
subj_2,3,129,9,3,2,1,693.79999999993,11,20,1
subj_2,3,130,10,1,1,1,576.399999999907,11,40,1
subj_2,3,131,11,6,2,1,567.699999999953,1,40,1
subj_2,3,132,12,4,1,1,625.599999999977,1,40,1
subj_2,3,133,13,1,1,1,563.70000000007,11,60,1
subj_2,3,134,14,5,1,1,973.5,11,80,1
subj_2,3,135,15,1,1,1,631.5,11,100,1
subj_2,3,136,16,5,1,1,734.800000000047,-1,100,1
subj_2,3,137,17,2,2,1,696.09999999986,1,100,1
subj_2,3,138,18,3,2,1,732.699999999953,11,120,1
subj_2,3,139,19,5,1,1,754,11,140,1
subj_2,3,140,20,1,1,1,686.59999999986,11,160,1
subj_2,3,141,21,6,2,1,537.899999999907,-11,140,1
subj_2,3,142,22,1,1,1,679.199999999953,11,160,1
subj_2,3,143,23,3,2,1,1014.5,11,180,1
subj_2,3,144,24,6,2,1,716.399999999907,-11,160,1
subj_2,3,145,25,6,2,1,784.399999999907,1,160,1
subj_2,3,146,26,4,1,1,607.699999999953,1,160,1
subj_2,3,147,27,3,2,1,962.300000000047,11,180,1
subj_2,3,148,28,5,1,1,764.199999999953,-1,180,1
subj_2,3,149,29,2,2,1,732.199999999953,1,180,1
subj_2,3,150,30,1,1,1,577.5,11,200,1
subj_2,3,151,31,4,1,1,650.800000000047,-11,180,1
subj_2,3,152,32,3,2,1,879.399999999907,-1,180,1
subj_2,3,153,33,5,1,1,828.800000000047,11,200,1
subj_2,3,154,34,2,2,1,708,1,200,1
subj_2,3,155,35,6,2,1,654.59999999986,-11,180,1
subj_2,3,156,36,2,2,1,731.300000000047,1,180,1
subj_2,3,157,37,2,2,1,646.600000000093,1,180,1
subj_2,3,158,38,4,1,1,1031.09999999986,1,180,1
subj_2,3,159,39,1,1,1,652.399999999907,11,200,1
subj_2,3,160,40,3,2,1,709.100000000093,11,220,1
subj_2,3,161,41,4,1,1,647.59999999986,1,220,1
subj_2,3,162,42,6,2,1,814.300000000047,1,220,1
subj_2,3,163,43,3,2,1,632.199999999953,11,240,1
subj_2,3,164,44,2,2,1,629.600000000093,1,240,1
subj_2,3,165,45,3,2,1,626.90000000014,-1,240,1
subj_2,3,166,46,4,1,1,624.199999999953,-11,220,1
subj_2,3,167,47,5,1,1,702.100000000093,-1,220,1
subj_2,3,168,48,4,1,1,668.800000000047,1,220,1
subj_2,3,169,49,5,1,1,556.699999999953,-1,220,1
subj_2,3,170,50,4,1,1,661.300000000047,1,220,1
subj_2,3,171,51,6,2,1,883.300000000047,-11,200,1
subj_2,3,172,52,5,1,1,630.600000000093,11,220,1
subj_2,3,173,53,3,2,1,693.90000000014,11,240,1
subj_2,3,174,54,3,2,1,818.5,-1,240,1
subj_2,3,175,55,2,2,1,660.40000000014,1,240,1
subj_2,3,176,56,1,1,1,852.40000000014,-1,240,1
subj_2,3,177,57,6,1,0,691,-11,220,1
subj_2,3,178,58,2,2,1,826.300000000047,1,220,1
subj_2,3,179,59,5,2,0,617.5,-1,220,1
subj_2,3,180,60,4,1,1,729.5,-11,200,1
subj_2,4,181,1,5,1,1,845.40000000014,-1,0,1
subj_2,4,182,2,2,2,1,862,1,0,1
subj_2,4,183,3,3,2,1,954,11,20,1
subj_2,4,184,4,4,1,1,700.600000000093,1,20,1
subj_2,4,185,5,3,2,1,659.199999999953,-1,20,1
subj_2,4,186,6,6,2,1,993.800000000047,1,20,1
subj_2,4,187,7,6,2,1,650.5,1,20,1
subj_2,4,188,8,1,1,1,683.100000000093,11,40,1
subj_2,4,189,9,2,2,1,750.40000000014,1,40,1
subj_2,4,190,10,6,2,1,851,1,40,1
subj_2,4,191,11,1,1,1,715.600000000093,11,60,1
subj_2,4,192,12,6,2,1,767.600000000093,-11,40,1
subj_2,4,193,13,4,1,1,583.5,-11,20,1
subj_2,4,194,14,5,2,0,926.800000000047,-1,20,1
subj_2,4,195,15,3,2,1,732.100000000093,11,40,1
subj_2,4,196,16,6,2,1,823.40000000014,-11,20,1
subj_2,4,197,17,4,1,1,753.40000000014,1,20,1
subj_2,4,198,18,5,2,0,668,-1,20,1
subj_2,4,199,19,1,1,1,635.90000000014,11,40,1
subj_2,4,200,20,5,2,0,637.199999999953,-1,40,1
subj_2,4,201,21,5,1,1,518.5,11,60,1
subj_2,4,202,22,1,1,1,616.5,-1,60,1
subj_2,4,203,23,3,2,1,800.40000000014,-1,60,1
subj_2,4,204,24,3,2,1,687,11,80,1
subj_2,4,205,25,1,1,1,574.300000000047,11,100,1
subj_2,4,206,26,4,1,1,672.300000000047,1,100,1
subj_2,4,207,27,6,2,1,792.199999999953,1,100,1
subj_2,4,208,28,5,1,1,1145.5,-1,100,1
subj_2,4,209,29,1,1,1,726.199999999953,11,120,1
subj_2,4,210,30,3,2,1,649.40000000014,11,140,1
subj_2,4,211,31,5,1,1,912.100000000093,11,160,1
subj_2,4,212,32,1,1,1,668,11,180,1
subj_2,4,213,33,1,1,1,612,11,200,1
subj_2,4,214,34,4,1,1,701.90000000014,-11,180,1
subj_2,4,215,35,3,2,1,704.5,11,200,1
subj_2,4,216,36,2,2,1,699.199999999953,1,200,1
subj_2,4,217,37,2,2,1,701.800000000047,1,200,1
subj_2,4,218,38,3,2,1,602.40000000014,-1,200,1
subj_2,4,219,39,5,1,1,1321,-1,200,1
subj_2,4,220,40,3,2,1,755,11,220,1
subj_2,4,221,41,3,2,1,661.600000000093,11,240,1
subj_2,4,222,42,4,1,1,769.600000000093,-11,220,1
subj_2,4,223,43,1,1,1,625.5,11,240,1
subj_2,4,224,44,2,2,1,647.5,-11,220,1
subj_2,4,225,45,6,2,1,1012.10000000009,-11,200,1
subj_2,4,226,46,6,2,1,700,-11,180,1
subj_2,4,227,47,4,1,1,718.699999999953,1,180,1
subj_2,4,228,48,6,2,1,772.600000000093,1,180,1
subj_2,4,229,49,2,2,1,760.600000000093,1,180,1
subj_2,4,230,50,5,1,1,968.5,-1,180,1
subj_2,4,231,51,5,2,0,616.5,11,200,1
subj_2,4,232,52,2,2,1,738.40000000014,1,200,1
subj_2,4,233,53,6,2,1,709.699999999953,-11,180,1
subj_2,4,234,54,2,2,1,595.699999999953,1,180,1
subj_2,4,235,55,4,1,1,772.300000000047,1,180,1
subj_2,4,236,56,4,1,1,774.199999999953,1,180,1
subj_2,4,237,57,1,1,1,734.199999999953,11,200,1
subj_2,4,238,58,4,1,1,585.5,1,200,1
subj_2,4,239,59,2,2,1,788.800000000047,1,200,1
subj_2,4,240,60,2,2,1,644.100000000093,1,200,1
subj_2,5,1,1,5,1,1,878.599999999991,11,20,2
subj_2,5,2,2,5,1,1,545.899999999994,-1,20,2
subj_2,5,3,3,2,2,1,902.599999999991,1,20,2
subj_2,5,4,4,4,1,1,665.199999999997,1,20,2
subj_2,5,5,5,1,1,1,679.099999999991,-1,20,2
subj_2,5,6,6,1,1,1,570.399999999994,11,40,2
subj_2,5,7,7,6,2,1,686.399999999994,1,40,2
subj_2,5,8,8,4,1,1,889.699999999997,1,40,2
subj_2,5,9,9,1,1,1,574.899999999994,11,60,2
subj_2,5,10,10,6,2,1,618.899999999994,1,60,2
subj_2,5,11,11,5,1,1,1018.79999999999,-1,60,2
subj_2,5,12,12,4,1,1,610.799999999988,1,60,2
subj_2,5,13,13,2,2,1,634.799999999988,1,60,2
subj_2,5,14,14,4,1,1,588,1,60,2
subj_2,5,15,15,6,2,1,815.299999999988,-11,40,2
subj_2,5,16,16,5,1,1,665.299999999988,-1,40,2
subj_2,5,17,17,1,1,1,511.299999999988,11,60,2
subj_2,5,18,18,3,2,1,685.199999999983,11,80,2
subj_2,5,19,19,6,2,1,666.5,1,80,2
subj_2,5,20,20,2,2,1,602.5,1,80,2
subj_2,5,21,21,3,2,1,605.100000000006,-1,80,2
subj_2,5,22,22,5,1,1,499.699999999983,-1,80,2
subj_2,5,23,23,4,1,1,738.299999999988,-11,60,2
subj_2,5,24,24,2,2,1,733.600000000006,-11,40,2
subj_2,5,25,25,2,2,1,568.899999999994,1,40,2
subj_2,5,26,26,1,1,1,668.899999999994,11,60,2
subj_2,5,27,27,5,2,0,512.799999999988,11,80,2
subj_2,5,28,28,1,1,1,588.799999999988,11,100,2
subj_2,5,29,29,3,2,1,614,11,120,2
subj_2,5,30,30,2,2,1,572,1,120,2
subj_2,5,31,31,6,2,1,964,1,120,2
subj_2,5,32,32,4,1,1,869.899999999994,-11,100,2
subj_2,5,33,33,5,2,0,693.899999999994,-1,100,2
subj_2,5,34,34,3,2,1,784.5,11,120,2
subj_2,5,35,35,4,1,1,551.799999999988,1,120,2
subj_2,5,36,36,6,2,1,704.399999999994,-11,100,2
subj_2,5,37,37,4,1,1,813,-11,80,2
subj_2,5,38,38,3,2,1,685,11,100,2
subj_2,5,39,39,5,2,0,714.200000000012,-1,100,2
subj_2,5,40,40,2,2,1,684.200000000012,1,100,2
subj_2,5,41,41,3,2,1,697.5,11,120,2
subj_2,5,42,42,1,1,1,656.100000000035,11,140,2
subj_2,5,43,43,2,2,1,696.700000000012,1,140,2
subj_2,5,44,44,4,1,1,847.400000000023,1,140,2
subj_2,5,45,45,5,2,0,710,-1,140,2
subj_2,5,46,46,6,2,1,847.900000000023,1,140,2
subj_2,5,47,47,4,1,1,804.600000000035,1,140,2
subj_2,5,48,48,3,2,1,677.200000000012,11,160,2
subj_2,5,49,49,2,2,1,650.5,1,160,2
subj_2,5,50,50,2,2,1,663.100000000035,1,160,2
subj_2,5,51,51,5,1,1,1087,11,180,2
subj_2,5,52,52,3,2,1,658.300000000047,-1,180,2
subj_2,5,53,53,6,2,1,971,-11,160,2
subj_2,5,54,54,1,1,1,682.900000000023,11,180,2
subj_2,5,55,55,1,1,1,794.200000000012,11,200,2
subj_2,5,56,56,3,2,1,1128.80000000005,11,220,2
subj_2,5,57,57,6,2,1,694.100000000035,-11,200,2
subj_2,5,58,58,1,1,1,632.700000000012,11,220,2
subj_2,5,59,59,6,2,1,766.099999999977,-11,200,2
subj_2,5,60,60,3,2,1,714,-1,200,2
subj_2,6,61,1,1,1,1,733.200000000012,11,20,2
subj_2,6,62,2,4,1,1,714.400000000023,-11,0,2
subj_2,6,63,3,2,2,1,630.400000000023,1,0,2
subj_2,6,64,4,4,2,0,535.700000000012,1,0,2
subj_2,6,65,5,3,2,1,713,11,20,2
subj_2,6,66,6,6,1,0,530.900000000023,1,20,2
subj_2,6,67,7,1,1,1,588.200000000012,11,40,2
subj_2,6,68,8,6,1,0,757.5,1,40,2
subj_2,6,69,9,4,2,0,578.100000000035,-11,20,2
subj_2,6,70,10,5,1,1,1603.40000000002,11,40,2
subj_2,6,71,11,4,2,0,798,-11,20,2
subj_2,6,72,12,2,2,1,662.799999999988,1,20,2
subj_2,6,73,13,2,2,1,654.700000000012,1,20,2
subj_2,6,74,14,2,2,1,605.299999999988,1,20,2
subj_2,6,75,15,6,1,0,1149.90000000002,-11,0,2
subj_2,6,76,16,1,1,1,618.599999999977,11,20,2
subj_2,6,77,17,3,2,1,794.400000000023,11,40,2
subj_2,6,78,18,6,2,1,1001.10000000003,-11,20,2
subj_2,6,79,19,4,2,0,879.799999999988,-11,0,2
subj_2,6,80,20,3,2,1,709,-1,0,2
subj_2,6,81,21,4,1,1,513.700000000012,1,0,2
subj_2,6,82,22,2,2,1,663.599999999977,1,0,2
subj_2,6,83,23,1,1,1,675.599999999977,11,20,2
subj_2,6,84,24,1,1,1,647.5,11,40,2
subj_2,6,85,25,6,2,1,950.100000000035,1,40,2
subj_2,6,86,26,2,2,1,736.800000000047,1,40,2
subj_2,6,87,27,4,1,1,1260.09999999998,1,40,2
subj_2,6,88,28,3,2,1,660,11,60,2
subj_2,6,89,29,3,2,1,644,11,80,2
subj_2,6,90,30,2,2,1,610.599999999977,1,80,2
subj_2,6,91,31,4,1,1,1164.5,1,80,2
subj_2,6,92,32,3,2,1,680.5,11,100,2
subj_2,6,93,33,4,1,1,843.800000000047,-11,80,2
subj_2,6,94,34,5,2,0,936.400000000023,11,100,2
subj_2,6,95,35,6,2,1,933.699999999953,1,100,2
subj_2,6,96,36,1,1,1,599,11,120,2
subj_2,6,97,37,3,2,1,737.599999999977,-1,120,2
subj_2,6,98,38,3,2,1,750.900000000023,11,140,2
subj_2,6,99,39,2,2,1,649.5,1,140,2
subj_2,6,100,40,3,2,1,858.099999999977,11,160,2
subj_2,6,101,41,1,1,1,664.800000000047,11,180,2
subj_2,6,102,42,5,2,0,750.699999999953,11,200,2
subj_2,6,103,43,5,2,0,823.300000000047,-1,200,2
subj_2,6,104,44,5,2,0,1033.30000000005,11,220,2
subj_2,6,105,45,5,2,0,654.599999999977,-1,220,2
subj_2,6,106,46,6,2,1,679.199999999953,1,220,2
subj_2,6,107,47,2,2,1,714.5,1,220,2
subj_2,6,108,48,5,2,0,832.5,-1,220,2
subj_2,6,109,49,1,1,1,631.699999999953,11,240,2
subj_2,6,110,50,5,2,0,661,11,260,2
subj_2,6,111,51,4,1,1,523,1,260,2
subj_2,6,112,52,1,1,1,656.900000000023,-1,260,2
subj_2,6,113,53,6,2,1,629.599999999977,-11,240,2
subj_2,6,114,54,6,2,1,642.800000000047,-11,220,2
subj_2,6,115,55,2,2,1,735.5,-11,200,2
subj_2,6,116,56,5,2,0,816.699999999953,-1,200,2
subj_2,6,117,57,3,2,1,670.699999999953,-1,200,2
subj_2,6,118,58,5,2,0,764.599999999977,11,220,2
subj_2,6,119,59,1,1,1,796.599999999977,11,240,2
subj_2,6,120,60,6,2,1,717.199999999953,1,240,2
subj_2,7,121,1,4,1,1,701.800000000047,-11,-20,2
subj_2,7,122,2,3,2,1,674.400000000023,11,0,2
subj_2,7,123,3,6,2,1,614.300000000047,1,0,2
subj_2,7,124,4,6,2,1,736.300000000047,-11,-20,2
subj_2,7,125,5,4,1,1,825.599999999977,1,-20,2
subj_2,7,126,6,4,1,1,731.5,1,-20,2
subj_2,7,127,7,2,2,1,648.800000000047,1,-20,2
subj_2,7,128,8,3,2,1,805.400000000023,11,0,2
subj_2,7,129,9,2,2,1,680.099999999977,1,0,2
subj_2,7,130,10,4,1,1,627.400000000023,1,0,2
subj_2,7,131,11,5,2,0,746.599999999977,11,20,2
subj_2,7,132,12,5,2,0,645.300000000047,-1,20,2
subj_2,7,133,13,6,2,1,721.900000000023,1,20,2
subj_2,7,134,14,5,2,0,629.800000000047,-1,20,2
subj_2,7,135,15,1,1,1,703.099999999977,11,40,2
subj_2,7,136,16,5,1,1,555.800000000047,11,60,2
subj_2,7,137,17,2,2,1,620.400000000023,-11,40,2
subj_2,7,138,18,3,2,1,670.300000000047,11,60,2
subj_2,7,139,19,5,1,1,622.300000000047,11,80,2
subj_2,7,140,20,1,1,1,636.199999999953,11,100,2
subj_2,7,141,21,4,1,1,811.5,1,100,2
subj_2,7,142,22,5,1,1,533.5,-1,100,2
subj_2,7,143,23,1,1,1,656.800000000047,11,120,2
subj_2,7,144,24,6,2,1,1081.40000000002,-11,100,2
subj_2,7,145,25,2,2,1,630.699999999953,1,100,2
subj_2,7,146,26,2,2,1,678,1,100,2
subj_2,7,147,27,6,2,1,733.199999999953,1,100,2
subj_2,7,148,28,3,2,1,734.5,11,120,2
subj_2,7,149,29,2,2,1,615.800000000047,1,120,2
subj_2,7,150,30,1,1,1,711.800000000047,11,140,2
subj_2,7,151,31,4,1,1,945.699999999953,-11,120,2
subj_2,7,152,32,6,2,1,650.300000000047,1,120,2
subj_2,7,153,33,1,1,1,633,11,140,2
subj_2,7,154,34,6,2,1,970.300000000047,-11,120,2
subj_2,7,155,35,4,1,1,676.199999999953,1,120,2
subj_2,7,156,36,3,2,1,657.5,-1,120,2
subj_2,7,157,37,1,1,1,626.099999999977,11,140,2
subj_2,7,158,38,1,1,1,631.400000000023,11,160,2
subj_2,7,159,39,4,1,1,620.699999999953,1,160,2
subj_2,7,160,40,4,1,1,604.699999999953,-11,140,2
subj_2,7,161,41,3,2,1,699.300000000047,-1,140,2
subj_2,7,162,42,4,1,1,553.900000000023,1,140,2
subj_2,7,163,43,2,2,1,652.5,1,140,2
subj_2,7,164,44,3,2,1,747.199999999953,11,160,2
subj_2,7,165,45,3,2,1,647.800000000047,11,180,2
subj_2,7,166,46,5,1,1,686.400000000023,11,200,2
subj_2,7,167,47,2,2,1,641.699999999953,1,200,2
subj_2,7,168,48,2,2,1,1007,1,200,2
subj_2,7,169,49,1,1,1,697.599999999977,11,220,2
subj_2,7,170,50,6,2,1,784.199999999953,1,220,2
subj_2,7,171,51,5,1,1,531.5,-1,220,2
subj_2,7,172,52,5,1,1,630.900000000023,-1,220,2
subj_2,7,173,53,6,2,1,1020.09999999998,-11,200,2
subj_2,7,174,54,3,2,1,690,-1,200,2
subj_2,7,175,55,1,1,1,591.300000000047,-1,200,2
subj_2,7,176,56,1,1,1,594.599999999977,11,220,2
subj_2,7,177,57,2,2,1,619.199999999953,1,220,2
subj_2,7,178,58,3,2,1,805.199999999953,11,240,2
subj_2,7,179,59,6,2,1,683.800000000047,-11,220,2
subj_2,7,180,60,5,1,1,731.099999999977,-1,220,2
subj_2,8,181,1,4,1,1,823,1,0,2
subj_2,8,182,2,6,2,1,656.899999999907,1,0,2
subj_2,8,183,3,3,2,1,677.600000000093,11,20,2
subj_2,8,184,4,3,2,1,664.800000000047,11,40,2
subj_2,8,185,5,4,1,1,604.800000000047,1,40,2
subj_2,8,186,6,3,2,1,701.399999999907,-1,40,2
subj_2,8,187,7,4,1,1,656,1,40,2
subj_2,8,188,8,5,2,0,1022.60000000009,11,60,2
subj_2,8,189,9,2,2,1,752.700000000186,1,60,2
subj_2,8,190,10,5,2,0,811.199999999953,11,80,2
subj_2,8,191,11,5,2,0,587.199999999953,-1,80,2
subj_2,8,192,12,4,1,1,830.600000000093,-11,60,2
subj_2,8,193,13,6,2,1,871.699999999953,1,60,2
subj_2,8,194,14,2,2,1,685.699999999953,1,60,2
subj_2,8,195,15,5,2,0,859.100000000093,11,80,2
subj_2,8,196,16,4,1,1,721.700000000186,-11,60,2
subj_2,8,197,17,1,1,1,607.700000000186,11,80,2
subj_2,8,198,18,2,2,1,642.199999999953,1,80,2
subj_2,8,199,19,6,2,1,723.5,1,80,2
subj_2,8,200,20,6,2,1,613.399999999907,-11,60,2
subj_2,8,201,21,2,2,1,651.5,-11,40,2
subj_2,8,202,22,3,2,1,930.100000000093,11,60,2
subj_2,8,203,23,6,2,1,943.40000000014,-11,40,2
subj_2,8,204,24,1,1,1,763.899999999907,11,60,2
subj_2,8,205,25,4,1,1,796,1,60,2
subj_2,8,206,26,5,2,0,626.600000000093,-1,60,2
subj_2,8,207,27,3,2,1,839.90000000014,11,80,2
subj_2,8,208,28,3,2,1,957.200000000186,11,100,2
subj_2,8,209,29,1,1,1,759.800000000047,11,120,2
subj_2,8,210,30,6,2,1,721.700000000186,-11,100,2
subj_2,8,211,31,3,2,1,685.700000000186,11,120,2
subj_2,8,212,32,6,2,1,891,-11,100,2
subj_2,8,213,33,3,2,1,640.300000000047,-1,100,2
subj_2,8,214,34,2,2,1,597.600000000093,1,100,2
subj_2,8,215,35,2,2,1,732.200000000186,1,100,2
subj_2,8,216,36,4,1,1,961.5,1,100,2
subj_2,8,217,37,5,1,1,667.40000000014,-1,100,2
subj_2,8,218,38,2,2,1,659.40000000014,1,100,2
subj_2,8,219,39,2,2,1,697.300000000047,1,100,2
subj_2,8,220,40,6,2,1,664,1,100,2
subj_2,8,221,41,4,1,1,735.90000000014,1,100,2
subj_2,8,222,42,1,1,1,667.200000000186,11,120,2
subj_2,8,223,43,5,2,0,647.100000000093,11,140,2
subj_2,8,224,44,6,2,1,643.800000000047,1,140,2
subj_2,8,225,45,4,1,1,824.40000000014,-11,120,2
subj_2,8,226,46,1,1,1,682.300000000047,11,140,2
subj_2,8,227,47,3,2,1,1431.60000000009,-1,140,2
subj_2,8,228,48,2,2,1,1500.90000000014,1,140,2
subj_2,8,229,49,1,1,1,639.5,11,160,2
subj_2,8,230,50,2,2,1,664.800000000047,1,160,2
subj_2,8,231,51,5,2,0,686.800000000047,-1,160,2
subj_2,8,232,52,1,1,1,678,11,180,2
subj_2,8,233,53,4,1,1,745.300000000047,1,180,2
subj_2,8,234,54,1,1,1,606,11,200,2
subj_2,8,235,55,6,2,1,680.600000000093,-11,180,2
subj_2,8,236,56,5,2,0,805.90000000014,-1,180,2
subj_2,8,237,57,3,2,1,776.5,11,200,2
subj_2,8,238,58,1,1,1,593.800000000047,11,220,2
subj_2,8,239,59,5,2,0,696.40000000014,-1,220,2
subj_2,8,240,60,1,1,1,679,-1,220,2
subj_3,1,1,1,4,2,0,1346,-11,-20,1
subj_3,1,2,2,3,2,1,1554.60000000001,11,0,1
subj_3,1,3,3,5,2,0,1099.20000000001,-1,0,1
subj_3,1,4,4,4,2,0,2117.79999999999,1,0,1
subj_3,1,5,5,3,1,0,745.799999999988,-1,0,1
subj_3,1,6,6,4,2,0,1492.39999999999,-11,-20,1
subj_3,1,7,7,6,1,0,1625.70000000001,-11,-40,1
subj_3,1,8,8,5,2,0,1273.60000000001,-1,-40,1
subj_3,1,9,9,3,2,1,1065.60000000001,-1,-40,1
subj_3,1,10,10,4,1,1,1493.5,1,-40,1
subj_3,1,11,11,6,2,1,1178.10000000001,-11,-60,1
subj_3,1,12,12,2,1,0,869.399999999994,-11,-80,1
subj_3,1,13,13,6,2,1,1427.40000000002,-11,-100,1
subj_3,1,14,14,6,1,0,1250.69999999995,-11,-120,1
subj_3,1,15,15,2,2,1,1099.29999999999,1,-120,1
subj_3,1,16,16,6,2,1,1015.90000000002,-11,-140,1
subj_3,1,17,17,2,1,0,1373.79999999999,-11,-160,1
subj_3,1,18,18,5,1,1,1905.79999999999,-1,-160,1
subj_3,1,19,19,4,2,0,1052.40000000002,-11,-180,1
subj_3,1,20,20,6,2,1,657,-11,-200,1
subj_3,1,21,21,3,2,1,1533.59999999998,11,-180,1
subj_3,1,22,22,1,9,9,9999,9,-180,1
subj_3,1,23,23,2,2,1,1005.5,-11,-200,1
subj_3,1,24,24,4,1,1,776.200000000012,1,-200,1
subj_3,1,25,25,4,1,1,719.400000000023,1,-200,1
subj_3,1,26,26,5,2,0,1411.40000000002,11,-180,1
subj_3,1,27,27,2,1,0,1829.29999999999,-11,-200,1
subj_3,1,28,28,1,2,0,1158.59999999998,11,-180,1
subj_3,1,29,29,6,1,0,1049.20000000001,-11,-200,1
subj_3,1,30,30,5,2,0,1961.90000000002,-1,-200,1
subj_3,1,31,31,2,2,1,1437.79999999999,1,-200,1
subj_3,1,32,32,6,1,0,1775.09999999998,1,-200,1
subj_3,1,33,33,1,2,0,907,-1,-200,1
subj_3,1,34,34,2,2,1,1245.70000000001,1,-200,1
subj_3,1,35,35,5,2,0,1230.29999999999,-1,-200,1
subj_3,1,36,36,6,2,1,1509.59999999998,1,-200,1
subj_3,1,37,37,3,2,1,935.5,11,-180,1
subj_3,1,38,38,3,1,0,1008.79999999999,11,-160,1
subj_3,1,39,39,1,2,0,905.400000000023,-1,-160,1
subj_3,1,40,40,1,2,0,828,-1,-160,1
subj_3,1,41,41,3,1,0,813.399999999965,-1,-160,1
subj_3,1,42,42,1,2,0,931.399999999965,-1,-160,1
subj_3,1,43,43,4,1,1,1528.59999999998,-11,-180,1
subj_3,1,44,44,5,1,1,929.799999999988,-1,-180,1
subj_3,1,45,45,5,2,0,613.099999999977,11,-160,1
subj_3,1,46,46,6,1,0,1149.09999999998,-11,-180,1
subj_3,1,47,47,3,2,1,1335.79999999999,11,-160,1
subj_3,1,48,48,4,1,1,1325,1,-160,1
subj_3,1,49,49,5,2,0,835.099999999977,11,-140,1
subj_3,1,50,50,3,2,1,1586.20000000001,-1,-140,1
subj_3,1,51,51,1,2,0,1613.5,-1,-140,1
subj_3,1,52,52,4,2,0,1509.5,1,-140,1
subj_3,1,53,53,1,2,0,1403.5,-1,-140,1
subj_3,1,54,54,5,2,0,788.099999999977,-1,-140,1
subj_3,1,55,55,1,1,1,883.299999999988,11,-120,1
subj_3,1,56,56,2,1,0,1240.69999999995,-11,-140,1
subj_3,1,57,57,1,1,1,1330,11,-120,1
subj_3,1,58,58,3,2,1,1189.29999999993,11,-100,1
subj_3,1,59,59,2,2,1,1284.59999999998,1,-100,1
subj_3,1,60,60,2,2,1,975.79999999993,1,-100,1
subj_3,2,61,1,1,2,0,1110.29999999993,-1,0,1
subj_3,2,62,2,1,2,0,928.29999999993,-1,0,1
subj_3,2,63,3,3,2,1,1097.59999999998,11,20,1
subj_3,2,64,4,1,1,1,980.199999999953,11,40,1
subj_3,2,65,5,5,2,0,1023.5,-1,40,1
subj_3,2,66,6,4,2,0,1799.40000000002,1,40,1
subj_3,2,67,7,5,2,0,786.099999999977,11,60,1
subj_3,2,68,8,4,1,1,1317.40000000002,1,60,1
subj_3,2,69,9,1,2,0,1665.29999999993,-1,60,1
subj_3,2,70,10,5,2,0,833.29999999993,-1,60,1
subj_3,2,71,11,2,2,1,992.5,1,60,1
subj_3,2,72,12,1,2,0,1179.79999999993,-1,60,1
subj_3,2,73,13,5,2,0,459,-1,60,1
subj_3,2,74,14,6,1,0,995.699999999953,-11,40,1
subj_3,2,75,15,2,2,1,740.29999999993,1,40,1
subj_3,2,76,16,2,2,1,887.599999999977,1,40,1
subj_3,2,77,17,6,1,0,974.900000000023,-11,20,1
subj_3,2,78,18,1,2,0,798.800000000047,-1,20,1
subj_3,2,79,19,5,2,0,743.5,11,40,1
subj_3,2,80,20,4,1,1,932.099999999977,1,40,1
subj_3,2,81,21,4,1,1,887.400000000023,1,40,1
subj_3,2,82,22,4,2,0,1918.69999999995,-11,20,1
subj_3,2,83,23,2,2,1,818.599999999977,-11,0,1
subj_3,2,84,24,6,1,0,944.599999999977,1,0,1
subj_3,2,85,25,2,1,0,1141.19999999995,-11,-20,1
subj_3,2,86,26,2,2,1,1254.5,1,-20,1
subj_3,2,87,27,4,2,0,813.099999999977,-11,-40,1
subj_3,2,88,28,1,1,1,725.099999999977,11,-20,1
subj_3,2,89,29,5,2,0,721,11,0,1
subj_3,2,90,30,4,1,1,859,-11,-20,1
subj_3,2,91,31,6,1,0,859.599999999977,-11,-40,1
subj_3,2,92,32,5,2,0,655.599999999977,11,-20,1
subj_3,2,93,33,1,2,0,1214.19999999995,-1,-20,1
subj_3,2,94,34,3,2,1,1028.09999999998,-1,-20,1
subj_3,2,95,35,6,1,0,779.400000000023,-11,-40,1
subj_3,2,96,36,3,2,1,738.699999999953,11,-20,1
subj_3,2,97,37,4,2,0,1064,1,-20,1
subj_3,2,98,38,2,1,0,819.900000000023,-11,-40,1
subj_3,2,99,39,2,2,1,1211.90000000002,1,-40,1
subj_3,2,100,40,5,2,0,809.79999999993,-1,-40,1
subj_3,2,101,41,3,1,0,1015.79999999993,11,-20,1
subj_3,2,102,42,2,1,0,911.699999999953,-11,-40,1
subj_3,2,103,43,3,2,1,1059.69999999995,11,-20,1
subj_3,2,104,44,6,1,0,803.699999999953,-11,-40,1
subj_3,2,105,45,3,1,0,678.29999999993,-1,-40,1
subj_3,2,106,46,3,2,1,817.599999999977,11,-20,1
subj_3,2,107,47,6,2,1,983.5,-11,-40,1
subj_3,2,108,48,3,2,1,504.79999999993,11,-20,1
subj_3,2,109,49,6,1,0,783.400000000023,1,-20,1
subj_3,2,110,50,6,2,1,698.699999999953,-11,-40,1
subj_3,2,111,51,2,2,1,953.29999999993,1,-40,1
subj_3,2,112,52,3,2,1,1165.90000000002,-1,-40,1
subj_3,2,113,53,1,1,1,807.900000000023,-1,-40,1
subj_3,2,114,54,4,2,0,758.5,-11,-60,1
subj_3,2,115,55,6,2,1,1051.19999999995,-11,-80,1
subj_3,2,116,56,5,2,0,649.79999999993,11,-60,1
subj_3,2,117,57,3,1,0,958.400000000023,-1,-60,1
subj_3,2,118,58,5,2,0,551,-1,-60,1
subj_3,2,119,59,1,1,1,919.599999999977,11,-40,1
subj_3,2,120,60,4,1,1,995.599999999977,1,-40,1
subj_3,3,121,1,6,1,0,1344.69999999995,-11,-20,1
subj_3,3,122,2,5,2,0,557.400000000023,-1,-20,1
subj_3,3,123,3,6,2,1,1210,-11,-40,1
subj_3,3,124,4,2,1,0,895.900000000023,-11,-60,1
subj_3,3,125,5,5,2,0,666.5,-1,-60,1
subj_3,3,126,6,1,1,1,654.5,-1,-60,1
subj_3,3,127,7,4,2,0,669.099999999977,-11,-80,1
subj_3,3,128,8,1,2,0,645.099999999977,-1,-80,1
subj_3,3,129,9,6,1,0,1227.69999999995,-11,-100,1
subj_3,3,130,10,2,2,1,1179,1,-100,1
subj_3,3,131,11,6,2,1,1914.29999999993,-11,-120,1
subj_3,3,132,12,4,1,1,1032.19999999995,-11,-140,1
subj_3,3,133,13,4,2,0,1087.5,1,-140,1
subj_3,3,134,14,4,2,0,810.79999999993,-11,-160,1
subj_3,3,135,15,4,1,1,826.699999999953,-11,-180,1
subj_3,3,136,16,5,2,0,768,-1,-180,1
subj_3,3,137,17,6,2,1,1530,1,-180,1
subj_3,3,138,18,2,2,1,509.199999999953,1,-180,1
subj_3,3,139,19,1,1,1,971.900000000023,11,-160,1
subj_3,3,140,20,5,2,0,621.79999999993,11,-140,1
subj_3,3,141,21,6,2,1,1355.79999999993,1,-140,1
subj_3,3,142,22,4,1,1,944.400000000023,1,-140,1
subj_3,3,143,23,6,2,1,1297,1,-140,1
subj_3,3,144,24,4,1,1,1199.59999999998,1,-140,1
subj_3,3,145,25,5,2,0,720.29999999993,-1,-140,1
subj_3,3,146,26,3,1,0,924.199999999953,-1,-140,1
subj_3,3,147,27,6,2,1,904.200000000186,-11,-160,1
subj_3,3,148,28,4,1,1,718.800000000047,1,-160,1
subj_3,3,149,29,1,2,0,786.700000000186,-1,-160,1
subj_3,3,150,30,3,1,0,1318,-1,-160,1
subj_3,3,151,31,4,2,0,834,-11,-180,1
subj_3,3,152,32,2,2,1,865.300000000047,1,-180,1
subj_3,3,153,33,2,2,1,969.300000000047,1,-180,1
subj_3,3,154,34,3,2,1,699.200000000186,-1,-180,1
subj_3,3,155,35,4,2,0,615.899999999907,-11,-200,1
subj_3,3,156,36,3,2,1,769.700000000186,-1,-200,1
subj_3,3,157,37,1,1,1,777.700000000186,11,-180,1
subj_3,3,158,38,2,2,1,977,1,-180,1
subj_3,3,159,39,6,2,1,1212.39999999991,-11,-200,1
subj_3,3,160,40,5,2,0,660.300000000047,11,-180,1
subj_3,3,161,41,3,1,0,1370.20000000019,-1,-180,1
subj_3,3,162,42,5,2,0,642.100000000093,-1,-180,1
subj_3,3,163,43,1,2,0,631.40000000014,-1,-180,1
subj_3,3,164,44,6,2,1,1432.70000000019,-11,-200,1
subj_3,3,165,45,5,2,0,686.09999999986,11,-180,1
subj_3,3,166,46,5,2,0,685.399999999907,11,-160,1
subj_3,3,167,47,1,1,1,920.699999999953,11,-140,1
subj_3,3,168,48,2,2,1,898.59999999986,-11,-160,1
subj_3,3,169,49,1,2,0,721.199999999953,-1,-160,1
subj_3,3,170,50,3,1,0,791.100000000093,-1,-160,1
subj_3,3,171,51,3,1,0,1128.5,-1,-160,1
subj_3,3,172,52,2,2,1,753.800000000047,1,-160,1
subj_3,3,173,53,2,2,1,594.399999999907,1,-160,1
subj_3,3,174,54,1,1,1,1553,11,-140,1
subj_3,3,175,55,5,2,0,533.59999999986,11,-120,1
subj_3,3,176,56,1,1,1,938.899999999907,11,-100,1
subj_3,3,177,57,3,2,1,672.199999999953,-1,-100,1
subj_3,3,178,58,2,1,0,1132.09999999986,-11,-120,1
subj_3,3,179,59,3,2,1,839.399999999907,11,-100,1
subj_3,3,180,60,3,2,1,784.699999999953,11,-80,1
subj_3,4,181,1,2,2,1,1427.19999999995,-11,-20,1
subj_3,4,182,2,5,2,0,490.5,-1,-20,1
subj_3,4,183,3,2,2,1,1557.80000000005,1,-20,1
subj_3,4,184,4,2,1,0,546.399999999907,-11,-40,1
subj_3,4,185,5,4,1,1,947,1,-40,1
subj_3,4,186,6,1,1,1,1195.59999999986,11,-20,1
subj_3,4,187,7,4,1,1,726.200000000186,-11,-40,1
subj_3,4,188,8,1,2,0,839.5,-1,-40,1
subj_3,4,189,9,4,2,0,1036.80000000005,-11,-60,1
subj_3,4,190,10,4,1,1,828.09999999986,-11,-80,1
subj_3,4,191,11,3,2,1,861.399999999907,-1,-80,1
subj_3,4,192,12,1,2,0,745.300000000047,-1,-80,1
subj_3,4,193,13,6,1,0,1148,1,-80,1
subj_3,4,194,14,3,1,0,910.59999999986,-1,-80,1
subj_3,4,195,15,2,2,1,980.5,1,-80,1
subj_3,4,196,16,2,2,1,605.800000000047,1,-80,1
subj_3,4,197,17,5,2,0,710.399999999907,11,-60,1
subj_3,4,198,18,4,1,1,1722.39999999991,1,-60,1
subj_3,4,199,19,1,1,1,856.300000000047,11,-40,1
subj_3,4,200,20,5,2,0,719,-1,-40,1
subj_3,4,201,21,2,2,1,780.899999999907,1,-40,1
subj_3,4,202,22,2,2,1,876.199999999953,1,-40,1
subj_3,4,203,23,6,1,0,671.5,-11,-60,1
subj_3,4,204,24,1,2,0,2373.39999999991,-1,-60,1
subj_3,4,205,25,2,2,1,1065.39999999991,1,-60,1
subj_3,4,206,26,4,2,0,647.300000000047,1,-60,1
subj_3,4,207,27,1,1,1,900,11,-40,1
subj_3,4,208,28,5,2,0,704.59999999986,11,-20,1
subj_3,4,209,29,6,1,0,723.199999999953,1,-20,1
subj_3,4,210,30,6,1,0,815.199999999953,-11,-40,1
subj_3,4,211,31,4,2,0,817.09999999986,-11,-60,1
subj_3,4,212,32,6,2,1,595.09999999986,-11,-80,1
subj_3,4,213,33,3,1,0,713.699999999953,-1,-80,1
subj_3,4,214,34,6,2,1,1099.59999999986,-11,-100,1
subj_3,4,215,35,3,1,0,1154.30000000005,-1,-100,1
subj_3,4,216,36,6,2,1,1044.89999999991,1,-100,1
subj_3,4,217,37,1,2,0,877.5,11,-80,1
subj_3,4,218,38,3,2,1,1328.80000000005,11,-60,1
subj_3,4,219,39,5,2,0,726.09999999986,-1,-60,1
subj_3,4,220,40,2,2,1,823.399999999907,1,-60,1
subj_3,4,221,41,3,2,1,625.300000000047,11,-40,1
subj_3,4,222,42,1,2,0,775.300000000047,-1,-40,1
subj_3,4,223,43,6,1,0,1095.19999999995,-11,-60,1
subj_3,4,224,44,4,1,1,795.800000000047,1,-60,1
subj_3,4,225,45,4,1,1,726.5,1,-60,1
subj_3,4,226,46,3,2,1,753.699999999953,11,-40,1
subj_3,4,227,47,3,2,1,750.399999999907,-1,-40,1
subj_3,4,228,48,5,2,0,675,11,-20,1
subj_3,4,229,49,5,2,0,506.899999999907,11,0,1
subj_3,4,230,50,5,2,0,543.59999999986,-1,0,1
subj_3,4,231,51,1,2,0,450.199999999953,-1,0,1
subj_3,4,232,52,3,2,1,1024.80000000005,-1,0,1
subj_3,4,233,53,4,1,1,646.800000000047,1,0,1
subj_3,4,234,54,1,2,0,861.399999999907,-1,0,1
subj_3,4,235,55,2,1,0,1277.30000000005,-11,-20,1
subj_3,4,236,56,6,1,0,2066.59999999986,-11,-40,1
subj_3,4,237,57,5,2,0,614.59999999986,-1,-40,1
subj_3,4,238,58,3,2,1,872.5,11,-20,1
subj_3,4,239,59,5,2,0,920.5,11,0,1
subj_3,4,240,60,6,2,1,1090.39999999991,-11,-20,1
subj_3,5,1,1,3,2,1,693.900000000009,-1,0,2
subj_3,5,2,2,4,1,1,716.599999999991,1,0,2
subj_3,5,3,3,4,1,1,702.599999999991,-11,-20,2
subj_3,5,4,4,6,2,1,1121.2,1,-20,2
subj_3,5,5,5,3,2,1,627.100000000006,-1,-20,2
subj_3,5,6,6,4,1,1,752.399999999994,1,-20,2
subj_3,5,7,7,6,2,1,605,1,-20,2
subj_3,5,8,8,1,1,1,1055.60000000001,11,0,2
subj_3,5,9,9,4,1,1,598.299999999988,-11,-20,2
subj_3,5,10,10,5,2,0,728.899999999994,-1,-20,2
subj_3,5,11,11,3,2,1,726.199999999983,11,0,2
subj_3,5,12,12,2,1,0,639.5,-11,-20,2
subj_3,5,13,13,3,2,1,766.799999999988,-1,-20,2
subj_3,5,14,14,1,2,0,602.799999999988,11,0,2
subj_3,5,15,15,3,2,1,765.399999999994,11,20,2
subj_3,5,16,16,6,2,1,1031.29999999999,-11,0,2
subj_3,5,17,17,5,2,0,908.600000000006,11,20,2
subj_3,5,18,18,5,2,0,1233.19999999998,-1,20,2
subj_3,5,19,19,6,1,0,526.5,1,20,2
subj_3,5,20,20,1,1,1,841.799999999988,11,40,2
subj_3,5,21,21,5,2,0,351.100000000006,-1,40,2
subj_3,5,22,22,5,1,1,449.699999999983,-1,40,2
subj_3,5,23,23,5,2,0,722.199999999983,-1,40,2
subj_3,5,24,24,3,1,0,868.199999999983,-1,40,2
subj_3,5,25,25,4,1,1,466.199999999983,1,40,2
subj_3,5,26,26,1,2,0,552.199999999983,-1,40,2
subj_3,5,27,27,5,2,0,330.799999999988,11,60,2
subj_3,5,28,28,4,1,1,552.100000000006,1,60,2
subj_3,5,29,29,2,2,1,610.699999999983,-11,40,2
subj_3,5,30,30,3,2,1,480.699999999983,11,60,2
subj_3,5,31,31,5,1,1,694,-1,60,2
subj_3,5,32,32,2,1,0,442.600000000006,-11,40,2
subj_3,5,33,33,2,2,1,939.199999999983,1,40,2
subj_3,5,34,34,3,1,0,968.5,-1,40,2
subj_3,5,35,35,2,2,1,840.5,1,40,2
subj_3,5,36,36,4,1,1,951.800000000047,1,40,2
subj_3,5,37,37,2,2,1,514.400000000023,1,40,2
subj_3,5,38,38,2,1,0,608.300000000047,-11,20,2
subj_3,5,39,39,4,1,1,731,1,20,2
subj_3,5,40,40,4,1,1,614.200000000012,1,20,2
subj_3,5,41,41,1,2,0,696.200000000012,-1,20,2
subj_3,5,42,42,5,2,0,866.800000000047,11,40,2
subj_3,5,43,43,6,1,0,520.800000000047,-11,20,2
subj_3,5,44,44,1,2,0,678.700000000012,-1,20,2
subj_3,5,45,45,1,2,0,1098,-1,20,2
subj_3,5,46,46,6,2,1,868.600000000035,1,20,2
subj_3,5,47,47,3,1,0,916.600000000035,-1,20,2
subj_3,5,48,48,1,2,0,870.5,-1,20,2
subj_3,5,49,49,6,1,0,450.5,1,20,2
subj_3,5,50,50,4,1,1,641.100000000035,-11,0,2
subj_3,5,51,51,3,2,1,1750.40000000002,11,20,2
subj_3,5,52,52,2,1,0,735,-11,0,2
subj_3,5,53,53,6,2,1,810.300000000047,-11,-20,2
subj_3,5,54,54,1,2,0,714.300000000047,-1,-20,2
subj_3,5,55,55,2,1,0,630.200000000012,-11,-40,2
subj_3,5,56,56,6,2,1,819.5,-11,-60,2
subj_3,5,57,57,2,1,0,693.5,-11,-80,2
subj_3,5,58,58,1,2,0,676.100000000035,-1,-80,2
subj_3,5,59,59,6,2,1,971.400000000023,1,-80,2
subj_3,5,60,60,5,2,0,1095.30000000005,-1,-80,2
subj_3,6,61,1,2,2,1,1008.5,1,0,2
subj_3,6,62,2,3,2,1,1211.10000000003,11,20,2
subj_3,6,63,3,5,2,0,761.100000000035,-1,20,2
subj_3,6,64,4,2,1,0,969,-11,0,2
subj_3,6,65,5,2,1,0,1115,-11,-20,2
subj_3,6,66,6,6,2,1,1576.90000000002,1,-20,2
subj_3,6,67,7,1,2,0,528.200000000012,-1,-20,2
subj_3,6,68,8,5,2,0,1123.5,-1,-20,2
subj_3,6,69,9,2,1,0,1253.40000000002,-11,-40,2
subj_3,6,70,10,5,1,1,1354.10000000003,-1,-40,2
subj_3,6,71,11,4,1,1,1222.70000000001,-11,-60,2
subj_3,6,72,12,1,2,0,806.600000000035,-1,-60,2
subj_3,6,73,13,3,2,1,799.200000000012,11,-40,2
subj_3,6,74,14,5,2,0,1265.90000000002,11,-20,2
subj_3,6,75,15,4,1,1,985.800000000047,1,-20,2
subj_3,6,76,16,3,2,1,729.100000000035,-1,-20,2
subj_3,6,77,17,4,1,1,626.400000000023,1,-20,2
subj_3,6,78,18,4,1,1,719.700000000012,1,-20,2
subj_3,6,79,19,1,2,0,763.600000000035,-1,-20,2
subj_3,6,80,20,5,1,1,763.600000000035,-1,-20,2
subj_3,6,81,21,3,2,1,1107.5,11,0,2
subj_3,6,82,22,4,1,1,1096.20000000007,1,0,2
subj_3,6,83,23,4,2,0,1126.80000000005,-11,-20,2
subj_3,6,84,24,5,2,0,1714.09999999998,11,0,2
subj_3,6,85,25,6,1,0,988,1,0,2
subj_3,6,86,26,5,2,0,1171.30000000005,-1,0,2
subj_3,6,87,27,6,2,1,991.20000000007,-11,-20,2
subj_3,6,88,28,1,2,0,838.5,-1,-20,2
subj_3,6,89,29,5,2,0,1319.80000000005,-1,-20,2
subj_3,6,90,30,1,2,0,1005.80000000005,-1,-20,2
subj_3,6,91,31,6,1,0,728.400000000023,1,-20,2
subj_3,6,92,32,6,1,0,953.70000000007,-11,-40,2
subj_3,6,93,33,2,2,1,972.300000000047,1,-40,2
subj_3,6,94,34,4,2,0,1246.20000000007,-11,-60,2
subj_3,6,95,35,3,1,0,756.900000000023,11,-40,2
subj_3,6,96,36,5,2,0,837.5,-1,-40,2
subj_3,6,97,37,6,1,0,726.900000000023,-11,-60,2
subj_3,6,98,38,2,2,1,1116,1,-60,2
subj_3,6,99,39,6,2,1,1136,-11,-80,2
subj_3,6,100,40,4,1,1,805.300000000047,-11,-100,2
subj_3,6,101,41,3,2,1,855.900000000023,11,-80,2
subj_3,6,102,42,3,1,0,518.5,-1,-80,2
subj_3,6,103,43,5,2,0,784.599999999977,11,-60,2
subj_3,6,104,44,1,1,1,713.800000000047,11,-40,2
subj_3,6,105,45,2,1,0,879.70000000007,-11,-60,2
subj_3,6,106,46,3,2,1,877,11,-40,2
subj_3,6,107,47,2,2,1,996.300000000047,-11,-60,2
subj_3,6,108,48,3,1,0,902.900000000023,11,-40,2
subj_3,6,109,49,4,2,0,709.599999999977,1,-40,2
subj_3,6,110,50,1,2,0,897.5,-1,-40,2
subj_3,6,111,51,1,1,1,678.099999999977,-1,-40,2
subj_3,6,112,52,4,2,0,641.400000000023,-11,-60,2
subj_3,6,113,53,3,2,1,1010.70000000007,11,-40,2
subj_3,6,114,54,6,1,0,642.70000000007,1,-40,2
subj_3,6,115,55,2,2,1,409.400000000023,1,-40,2
subj_3,6,116,56,6,1,0,407.20000000007,-11,-60,2
subj_3,6,117,57,1,2,0,1149.90000000002,-1,-60,2
subj_3,6,118,58,1,2,0,590.599999999977,-1,-60,2
subj_3,6,119,59,2,1,0,441.800000000047,-11,-80,2
subj_3,6,120,60,6,1,0,977.199999999953,-11,-100,2
subj_3,7,121,1,5,2,0,739.699999999953,11,20,2
subj_3,7,122,2,2,1,0,470.900000000023,-11,0,2
subj_3,7,123,3,3,2,1,654.800000000047,-1,0,2
subj_3,7,124,4,4,2,0,495.5,-11,-20,2
subj_3,7,125,5,1,2,0,558.199999999953,-1,-20,2
subj_3,7,126,6,1,1,1,970.800000000047,11,0,2
subj_3,7,127,7,1,1,1,898.599999999977,11,20,2
subj_3,7,128,8,2,2,1,653.300000000047,1,20,2
subj_3,7,129,9,4,2,0,1044,1,20,2
subj_3,7,130,10,1,1,1,514.599999999977,11,40,2
subj_3,7,131,11,1,1,1,612.5,11,60,2
subj_3,7,132,12,6,2,1,478.5,-11,40,2
subj_3,7,133,13,4,2,0,915.800000000047,1,40,2
subj_3,7,134,14,6,1,0,501.699999999953,1,40,2
subj_3,7,135,15,4,1,1,748.400000000023,1,40,2
subj_3,7,136,16,4,2,0,583,-11,20,2
subj_3,7,137,17,5,1,1,646.300000000047,-1,20,2
subj_3,7,138,18,2,2,1,594.900000000023,1,20,2
subj_3,7,139,19,4,1,1,595.5,-11,0,2
subj_3,7,140,20,3,2,1,450.099999999977,11,20,2
subj_3,7,141,21,4,2,0,568.699999999953,-11,0,2
subj_3,7,142,22,1,1,1,620.599999999977,11,20,2
subj_3,7,143,23,6,2,1,626.699999999953,1,20,2
subj_3,7,144,24,5,2,0,840,-1,20,2
subj_3,7,145,25,3,2,1,1893.19999999995,11,40,2
subj_3,7,146,26,5,2,0,707.900000000023,-1,40,2
subj_3,7,147,27,3,1,0,454.400000000023,-1,40,2
subj_3,7,148,28,1,1,1,443.099999999977,11,60,2
subj_3,7,149,29,1,2,0,1415.69999999995,-1,60,2
subj_3,7,150,30,3,1,0,687.699999999953,11,80,2
subj_3,7,151,31,4,2,0,693,-11,60,2
subj_3,7,152,32,5,2,0,913.599999999977,-1,60,2
subj_3,7,153,33,2,1,0,533.5,-11,40,2
subj_3,7,154,34,4,2,0,488.800000000047,-11,20,2
subj_3,7,155,35,6,1,0,496.099999999977,1,20,2
subj_3,7,156,36,3,2,1,958.699999999953,11,40,2
subj_3,7,157,37,1,1,1,459.400000000023,-1,40,2
subj_3,7,158,38,5,2,0,335.300000000047,11,60,2
subj_3,7,159,39,2,1,0,324.599999999977,-11,40,2
subj_3,7,160,40,5,2,0,374.599999999977,11,60,2
subj_3,7,161,41,2,2,1,682.5,1,60,2
subj_3,7,162,42,5,2,0,849.800000000047,11,80,2
subj_3,7,163,43,2,1,0,792.400000000023,1,80,2
subj_3,7,164,44,3,2,1,627.699999999953,-1,80,2
subj_3,7,165,45,5,2,0,1253,-1,80,2
subj_3,7,166,46,6,1,0,473.599999999977,1,80,2
subj_3,7,167,47,6,1,0,687.599999999977,-11,60,2
subj_3,7,168,48,6,2,1,446.900000000023,1,60,2
subj_3,7,169,49,2,2,1,411.5,1,60,2
subj_3,7,170,50,2,1,0,989.400000000023,-11,40,2
subj_3,7,171,51,3,2,1,696.699999999953,11,60,2
subj_3,7,172,52,5,1,1,597.400000000023,11,80,2
subj_3,7,173,53,6,2,1,870,1,80,2
subj_3,7,174,54,1,1,1,1053.90000000002,11,100,2
subj_3,7,175,55,2,2,1,1060.59999999998,1,100,2
subj_3,7,176,56,6,2,1,1450.5,-11,80,2
subj_3,7,177,57,6,1,0,359.100000000093,-11,60,2
subj_3,7,178,58,4,1,1,447.699999999953,1,60,2
subj_3,7,179,59,3,2,1,622.399999999907,11,80,2
subj_3,7,180,60,3,1,0,686.300000000047,-1,80,2
subj_3,8,181,1,3,2,1,412.199999999953,11,20,2
subj_3,8,182,2,1,1,1,554.100000000093,11,40,2
subj_3,8,183,3,4,2,0,394.699999999953,-11,20,2
subj_3,8,184,4,6,2,1,643.399999999907,-11,0,2
subj_3,8,185,5,4,1,1,434,-11,-20,2
subj_3,8,186,6,1,2,0,675.300000000047,-1,-20,2
subj_3,8,187,7,2,1,0,427.199999999953,1,-20,2
subj_3,8,188,8,5,2,0,732.5,-1,-20,2
subj_3,8,189,9,6,1,0,361.800000000047,-11,-40,2
subj_3,8,190,10,5,2,0,529.800000000047,11,-20,2
subj_3,8,191,11,1,2,0,667.100000000093,-1,-20,2
subj_3,8,192,12,5,1,1,407,11,0,2
subj_3,8,193,13,5,1,1,869.600000000093,11,20,2
subj_3,8,194,14,3,2,1,1243.60000000009,11,40,2
subj_3,8,195,15,3,1,0,442.199999999953,-1,40,2
subj_3,8,196,16,6,2,1,793.5,1,40,2
subj_3,8,197,17,6,2,1,596.100000000093,1,40,2
subj_3,8,198,18,2,1,0,850.699999999953,-11,20,2
subj_3,8,199,19,5,2,0,795.399999999907,11,40,2
subj_3,8,200,20,5,2,0,820,11,60,2
subj_3,8,201,21,5,2,0,819.899999999907,11,80,2
subj_3,8,202,22,1,1,1,1797.89999999991,11,100,2
subj_3,8,203,23,4,2,0,808.5,1,100,2
subj_3,8,204,24,4,2,0,607.100000000093,-11,80,2
subj_3,8,205,25,2,1,0,567.800000000047,-11,60,2
subj_3,8,206,26,4,2,0,1305.69999999995,-11,40,2
subj_3,8,207,27,6,1,0,1940.40000000014,1,40,2
subj_3,8,208,28,1,2,0,849.600000000093,-1,40,2
subj_3,8,209,29,2,1,0,690.199999999953,-11,20,2
subj_3,8,210,30,1,2,0,541.5,-1,20,2
subj_3,8,211,31,3,1,0,350.800000000047,-1,20,2
subj_3,8,212,32,4,2,0,471.399999999907,-11,0,2
subj_3,8,213,33,1,2,0,895.399999999907,-1,0,2
subj_3,8,214,34,1,1,1,466,11,20,2
subj_3,8,215,35,2,2,1,616,1,20,2
subj_3,8,216,36,6,2,1,569.899999999907,-11,0,2
subj_3,8,217,37,3,1,0,489.899999999907,11,20,2
subj_3,8,218,38,6,2,1,553.199999999953,-11,0,2
subj_3,8,219,39,1,1,1,1003.80000000005,11,20,2
subj_3,8,220,40,4,1,1,500.399999999907,1,20,2
subj_3,8,221,41,5,2,0,471,11,40,2
subj_3,8,222,42,2,1,0,557,-11,20,2
subj_3,8,223,43,6,1,0,1023.60000000009,1,20,2
subj_3,8,224,44,6,1,0,545.5,-11,0,2
subj_3,8,225,45,3,2,1,668.199999999953,11,20,2
subj_3,8,226,46,2,1,0,984.100000000093,-11,0,2
subj_3,8,227,47,4,2,0,1259.39999999991,-11,-20,2
subj_3,8,228,48,2,1,0,475.399999999907,-11,-40,2
subj_3,8,229,49,2,2,1,497.40000000014,1,-40,2
subj_3,8,230,50,3,1,0,555.899999999907,11,-20,2
subj_3,8,231,51,3,2,1,1104.60000000009,11,0,2
subj_3,8,232,52,4,1,1,341.199999999953,-11,-20,2
subj_3,8,233,53,1,2,0,560.5,11,0,2
subj_3,8,234,54,6,2,1,506.399999999907,1,0,2
subj_3,8,235,55,4,1,1,679.100000000093,1,0,2
subj_3,8,236,56,3,2,1,634.300000000047,11,20,2
subj_3,8,237,57,3,2,1,583.600000000093,-1,20,2
subj_3,8,238,58,2,1,0,430.899999999907,-11,0,2
subj_3,8,239,59,5,2,0,880.199999999953,-1,0,2
subj_3,8,240,60,5,2,0,575.600000000093,-1,0,2
subj_4,1,1,1,5,2,0,1134.80000000002,11,20,1
subj_4,1,2,2,6,1,0,586.100000000006,1,20,1
subj_4,1,3,3,2,2,1,733.400000000023,1,20,1
subj_4,1,4,4,4,1,1,914.700000000012,1,20,1
subj_4,1,5,5,6,1,0,576.700000000012,1,20,1
subj_4,1,6,6,2,2,1,610,1,20,1
subj_4,1,7,7,2,2,1,580,1,20,1
subj_4,1,8,8,3,1,0,781.300000000017,-1,20,1
subj_4,1,9,9,6,1,0,636.5,-11,0,1
subj_4,1,10,10,4,1,1,769.800000000017,-11,-20,1
subj_4,1,11,11,4,2,0,659.700000000012,-11,-40,1
subj_4,1,12,12,3,2,1,791.700000000012,11,-20,1
subj_4,1,13,13,3,2,1,673,-1,-20,1
subj_4,1,14,14,6,2,1,797,1,-20,1
subj_4,1,15,15,3,2,1,475.600000000006,11,0,1
subj_4,1,16,16,6,2,1,639.600000000006,1,0,1
subj_4,1,17,17,3,2,1,588.899999999994,-1,0,1
subj_4,1,18,18,3,1,0,628.100000000006,11,20,1
subj_4,1,19,19,2,2,1,675.399999999994,1,20,1
subj_4,1,20,20,1,2,0,839.299999999988,-1,20,1
subj_4,1,21,21,2,2,1,726.600000000006,1,20,1
subj_4,1,22,22,5,1,1,947.899999999994,11,40,1
subj_4,1,23,23,1,1,1,624.599999999977,11,60,1
subj_4,1,24,24,6,2,1,734.5,-11,40,1
subj_4,1,25,25,3,1,0,611.700000000012,-1,40,1
subj_4,1,26,26,1,1,1,763.700000000012,-1,40,1
subj_4,1,27,27,2,2,1,773.700000000012,1,40,1
subj_4,1,28,28,4,1,1,789.600000000035,-11,20,1
subj_4,1,29,29,2,2,1,617,1,20,1
subj_4,1,30,30,5,2,0,1182.90000000002,11,40,1
subj_4,1,31,31,1,1,1,794.200000000012,11,60,1
subj_4,1,32,32,5,2,0,720.900000000023,-1,60,1
subj_4,1,33,33,1,1,1,690.700000000012,11,80,1
subj_4,1,34,34,6,1,0,602,1,80,1
subj_4,1,35,35,5,1,1,850.700000000012,-1,80,1
subj_4,1,36,36,1,1,1,689.299999999988,11,100,1
subj_4,1,37,37,5,2,0,672.599999999977,-1,100,1
subj_4,1,38,38,1,1,1,592.599999999977,11,120,1
subj_4,1,39,39,6,1,0,555.200000000012,1,120,1
subj_4,1,40,40,1,1,1,691.799999999988,11,140,1
subj_4,1,41,41,6,1,0,567.099999999977,-11,120,1
subj_4,1,42,42,4,1,1,969.099999999977,1,120,1
subj_4,1,43,43,2,2,1,665,1,120,1
subj_4,1,44,44,4,2,0,1158.90000000002,-11,100,1
subj_4,1,45,45,5,2,0,719.600000000035,11,120,1
subj_4,1,46,46,4,2,0,851.5,-11,100,1
subj_4,1,47,47,1,1,1,842.200000000012,11,120,1
subj_4,1,48,48,3,1,0,753.5,-1,120,1
subj_4,1,49,49,5,2,0,694.100000000035,-1,120,1
subj_4,1,50,50,5,1,1,668.700000000012,-1,120,1
subj_4,1,51,51,4,1,1,914.599999999977,1,120,1
subj_4,1,52,52,3,1,0,736.599999999977,-1,120,1
subj_4,1,53,53,2,2,1,685.899999999965,1,120,1
subj_4,1,54,54,4,1,1,643.199999999953,-11,100,1
subj_4,1,55,55,1,1,1,897.799999999988,11,120,1
subj_4,1,56,56,2,2,1,532.399999999965,-11,100,1
subj_4,1,57,57,6,1,0,1197.69999999995,-11,80,1
subj_4,1,58,58,5,2,0,686.299999999988,-1,80,1
subj_4,1,59,59,4,1,1,549.699999999953,1,80,1
subj_4,1,60,60,3,2,1,370.200000000012,11,100,1
subj_4,2,61,1,1,1,1,628.099999999977,11,20,1
subj_4,2,62,2,2,2,1,529.400000000023,1,20,1
subj_4,2,63,3,6,1,0,522.700000000012,1,20,1
subj_4,2,64,4,6,1,0,540.700000000012,-11,0,1
subj_4,2,65,5,2,2,1,529.900000000023,1,0,1
subj_4,2,66,6,2,2,1,483.200000000012,1,0,1
subj_4,2,67,7,1,1,1,1008.5,11,20,1
subj_4,2,68,8,5,2,0,793.100000000035,11,40,1
subj_4,2,69,9,5,2,0,1169.80000000005,-1,40,1
subj_4,2,70,10,2,2,1,571.700000000012,1,40,1
subj_4,2,71,11,3,2,1,727.70000000007,11,60,1
subj_4,2,72,12,4,1,1,593,1,60,1
subj_4,2,73,13,2,2,1,567.5,1,60,1
subj_4,2,74,14,1,1,1,555.5,11,80,1
subj_4,2,75,15,6,1,0,648.100000000093,1,80,1
subj_4,2,76,16,3,2,1,720.800000000047,11,100,1
subj_4,2,77,17,6,1,0,906.70000000007,-11,80,1
subj_4,2,78,18,2,2,1,669.400000000023,1,80,1
subj_4,2,79,19,3,2,1,635.300000000047,-1,80,1
subj_4,2,80,20,5,2,0,604.600000000093,11,100,1
subj_4,2,81,21,1,1,1,629.300000000047,11,120,1
subj_4,2,82,22,6,2,1,564.600000000093,1,120,1
subj_4,2,83,23,3,1,0,766.399999999907,-1,120,1
subj_4,2,84,24,5,2,0,512.399999999907,11,140,1
subj_4,2,85,25,1,1,1,690.399999999907,11,160,1
subj_4,2,86,26,4,1,1,1255.69999999995,1,160,1
subj_4,2,87,27,5,2,0,736.29999999993,11,180,1
subj_4,2,88,28,3,1,0,721.599999999977,-1,180,1
subj_4,2,89,29,3,2,1,531.599999999977,11,200,1
subj_4,2,90,30,3,2,1,496.79999999993,11,220,1
subj_4,2,91,31,1,1,1,623.400000000023,11,240,1
subj_4,2,92,32,1,1,1,663.400000000023,-1,240,1
subj_4,2,93,33,6,1,0,675.29999999993,-11,220,1
subj_4,2,94,34,5,2,0,695.29999999993,-1,220,1
subj_4,2,95,35,4,1,1,602,1,220,1
subj_4,2,96,36,3,2,1,1260.59999999998,-1,220,1
subj_4,2,97,37,4,1,1,664.599999999977,1,220,1
subj_4,2,98,38,5,2,0,880.5,-1,220,1
subj_4,2,99,39,2,2,1,629.699999999953,1,220,1
subj_4,2,100,40,5,1,1,663,-1,220,1
subj_4,2,101,41,6,1,0,837,1,220,1
subj_4,2,102,42,6,2,1,964.300000000047,1,220,1
subj_4,2,103,43,3,1,0,1238.30000000005,11,240,1
subj_4,2,104,44,5,1,1,1239.59999999998,11,260,1
subj_4,2,105,45,2,2,1,724.900000000023,1,260,1
subj_4,2,106,46,4,1,1,830.800000000047,1,260,1
subj_4,2,107,47,1,1,1,768,11,280,1
subj_4,2,108,48,4,1,1,554,1,280,1
subj_4,2,109,49,6,1,0,756.599999999977,1,280,1
subj_4,2,110,50,1,1,1,671.300000000047,11,300,1
subj_4,2,111,51,5,2,0,783.20000000007,-1,300,1
subj_4,2,112,52,4,1,1,616.5,1,300,1
subj_4,2,113,53,3,2,1,818.5,11,320,1
subj_4,2,114,54,1,1,1,700.5,11,340,1
subj_4,2,115,55,2,2,1,763.099999999977,1,340,1
subj_4,2,116,56,6,1,0,1063,1,340,1
subj_4,2,117,57,4,1,1,618.900000000023,-11,320,1
subj_4,2,118,58,4,1,1,584.900000000023,-11,300,1
subj_4,2,119,59,2,2,1,730.20000000007,-11,280,1
subj_4,2,120,60,4,2,0,863.5,1,280,1
subj_4,3,121,1,5,2,0,738.599999999977,11,20,1
subj_4,3,122,2,5,2,0,669.899999999907,11,40,1
subj_4,3,123,3,1,1,1,629.899999999907,11,60,1
subj_4,3,124,4,2,2,1,559.199999999953,1,60,1
subj_4,3,125,5,6,1,0,547.79999999993,1,60,1
subj_4,3,126,6,1,1,1,588.5,11,80,1
subj_4,3,127,7,1,1,1,629.79999999993,-1,80,1
subj_4,3,128,8,6,1,0,541.099999999977,-11,60,1
subj_4,3,129,9,3,2,1,1218.29999999993,11,80,1
subj_4,3,130,10,4,1,1,936.199999999953,1,80,1
subj_4,3,131,11,6,1,0,1589.5,1,80,1
subj_4,3,132,12,3,2,1,774.79999999993,-1,80,1
subj_4,3,133,13,3,1,0,616.79999999993,-1,80,1
subj_4,3,134,14,3,2,1,552.79999999993,-1,80,1
subj_4,3,135,15,3,2,1,397.400000000023,11,100,1
subj_4,3,136,16,6,1,0,696,-11,80,1
subj_4,3,137,17,2,2,1,594.599999999977,1,80,1
subj_4,3,138,18,2,2,1,545.199999999953,1,80,1
subj_4,3,139,19,6,1,0,1099.80000000005,1,80,1
subj_4,3,140,20,2,2,1,734.5,-11,60,1
subj_4,3,141,21,4,1,1,665.800000000047,1,60,1
subj_4,3,142,22,3,1,0,1159.69999999995,-1,60,1
subj_4,3,143,23,3,2,1,553.699999999953,11,80,1
subj_4,3,144,24,2,2,1,778.300000000047,1,80,1
subj_4,3,145,25,4,1,1,693.599999999977,-11,60,1
subj_4,3,146,26,5,1,1,1058.30000000005,-1,60,1
subj_4,3,147,27,4,1,1,714.800000000047,1,60,1
subj_4,3,148,28,5,2,0,662.800000000047,-1,60,1
subj_4,3,149,29,4,1,1,594.70000000007,1,60,1
subj_4,3,150,30,1,1,1,585.400000000023,11,80,1
subj_4,3,151,31,1,1,1,504.70000000007,11,100,1
subj_4,3,152,32,2,2,1,583.300000000047,1,100,1
subj_4,3,153,33,1,1,1,482.599999999977,11,120,1
subj_4,3,154,34,5,2,0,647.900000000023,11,140,1
subj_4,3,155,35,2,2,1,876.5,1,140,1
subj_4,3,156,36,5,2,0,833.800000000047,-1,140,1
subj_4,3,157,37,2,2,1,913.100000000093,1,140,1
subj_4,3,158,38,6,1,0,619,-11,120,1
subj_4,3,159,39,3,2,1,1781,11,140,1
subj_4,3,160,40,6,1,0,740.300000000047,1,140,1
subj_4,3,161,41,2,2,1,679.600000000093,1,140,1
subj_4,3,162,42,1,1,1,1006.90000000002,11,160,1
subj_4,3,163,43,1,9,9,9999,9,160,1
subj_4,3,164,44,4,1,1,668,1,160,1
subj_4,3,165,45,6,1,0,564,-11,140,1
subj_4,3,166,46,4,1,1,542,-11,120,1
subj_4,3,167,47,6,2,1,671.300000000047,-11,100,1
subj_4,3,168,48,5,2,0,551.300000000047,-1,100,1
subj_4,3,169,49,5,2,0,447.899999999907,11,120,1
subj_4,3,170,50,5,2,0,558.40000000014,-1,120,1
subj_4,3,171,51,4,1,1,739.100000000093,-11,100,1
subj_4,3,172,52,3,1,0,1148.40000000014,11,120,1
subj_4,3,173,53,1,1,1,673,11,140,1
subj_4,3,174,54,4,1,1,2029,1,140,1
subj_4,3,175,55,5,2,0,1378.20000000019,-1,140,1
subj_4,3,176,56,4,1,1,571.600000000093,1,140,1
subj_4,3,177,57,1,1,1,551.5,11,160,1
subj_4,3,178,58,3,1,0,612.200000000186,-1,160,1
subj_4,3,179,59,2,2,1,548,1,160,1
subj_4,3,180,60,6,1,0,860.699999999953,-11,140,1
subj_4,4,181,1,4,1,1,563.199999999953,1,0,1
subj_4,4,182,2,2,2,1,475.199999999953,1,0,1
subj_4,4,183,3,3,2,1,659.100000000093,-1,0,1
subj_4,4,184,4,2,2,1,505.800000000047,1,0,1
subj_4,4,185,5,3,1,0,574.299999999814,-1,0,1
subj_4,4,186,6,5,1,1,994.299999999814,-1,0,1
subj_4,4,187,7,6,1,0,984.899999999907,-11,-20,1
subj_4,4,188,8,4,1,1,1432.19999999995,-11,-40,1
subj_4,4,189,9,5,1,1,1153.5,11,-20,1
subj_4,4,190,10,1,1,1,1262.09999999986,11,0,1
subj_4,4,191,11,6,1,0,636.09999999986,-11,-20,1
subj_4,4,192,12,2,9,9,9999,9,-20,1
subj_4,4,193,13,1,1,1,702,11,0,1
subj_4,4,194,14,2,2,1,552.600000000093,-11,-20,1
subj_4,4,195,15,4,1,1,749.199999999953,1,-20,1
subj_4,4,196,16,1,1,1,519.800000000047,11,0,1
subj_4,4,197,17,2,2,1,731.800000000047,1,0,1
subj_4,4,198,18,3,1,0,1073.10000000009,-1,0,1
subj_4,4,199,19,3,2,1,1025.10000000009,11,20,1
subj_4,4,200,20,3,2,1,529,11,40,1
subj_4,4,201,21,4,1,1,474.199999999953,1,40,1
subj_4,4,202,22,4,1,1,534.199999999953,1,40,1
subj_4,4,203,23,6,1,0,583.5,-11,20,1
subj_4,4,204,24,1,1,1,682.800000000047,11,40,1
subj_4,4,205,25,3,2,1,622.09999999986,11,60,1
subj_4,4,206,26,4,1,1,564.09999999986,-11,40,1
subj_4,4,207,27,6,1,0,638,1,40,1
subj_4,4,208,28,5,2,0,901.399999999907,-1,40,1
subj_4,4,209,29,2,2,1,503.90000000014,1,40,1
subj_4,4,210,30,4,1,1,494.5,1,40,1
subj_4,4,211,31,4,1,1,483.300000000047,1,40,1
subj_4,4,212,32,3,2,1,1032.5,-1,40,1
subj_4,4,213,33,3,2,1,903.800000000047,11,60,1
subj_4,4,214,34,5,2,0,1806.40000000014,-1,60,1
subj_4,4,215,35,3,2,1,871,11,80,1
subj_4,4,216,36,5,1,1,1821,-1,80,1
subj_4,4,217,37,6,1,0,495,-11,60,1
subj_4,4,218,38,5,2,0,617.5,11,80,1
subj_4,4,219,39,5,2,0,1465.39999999991,-1,80,1
subj_4,4,220,40,5,2,0,1613.39999999991,11,100,1
subj_4,4,221,41,3,9,9,9999,9,100,1
subj_4,4,222,42,4,1,1,572,-11,80,1
subj_4,4,223,43,4,1,1,460,1,80,1
subj_4,4,224,44,1,1,1,585.899999999907,11,100,1
subj_4,4,225,45,2,2,1,523.199999999953,1,100,1
subj_4,4,226,46,6,1,0,509.09999999986,1,100,1
subj_4,4,227,47,5,2,0,595.799999999814,-1,100,1
subj_4,4,228,48,2,2,1,518.399999999907,1,100,1
subj_4,4,229,49,6,1,0,716.399999999907,1,100,1
subj_4,4,230,50,1,2,0,1070.29999999981,-1,100,1
subj_4,4,231,51,1,1,1,490.299999999814,11,120,1
subj_4,4,232,52,2,2,1,457.59999999986,1,120,1
subj_4,4,233,53,5,1,1,874.199999999953,-1,120,1
subj_4,4,234,54,1,1,1,562.199999999953,11,140,1
subj_4,4,235,55,6,1,0,578.100000000093,1,140,1
subj_4,4,236,56,2,2,1,499.40000000014,1,140,1
subj_4,4,237,57,1,1,1,656,11,160,1
subj_4,4,238,58,1,1,1,1108.60000000009,-1,160,1
subj_4,4,239,59,6,9,9,9999,9,160,1
subj_4,4,240,60,6,1,0,509.90000000014,1,160,1
subj_4,5,1,1,2,2,1,710.400000000009,1,0,2
subj_4,5,2,2,4,1,1,576.300000000003,-11,-20,2
subj_4,5,3,3,3,2,1,643.600000000006,11,0,2
subj_4,5,4,4,2,2,1,504.300000000003,1,0,2
subj_4,5,5,5,4,2,0,708.900000000009,-11,-20,2
subj_4,5,6,6,2,2,1,547.5,1,-20,2
subj_4,5,7,7,1,1,1,712.199999999997,11,0,2
subj_4,5,8,8,3,2,1,692,11,20,2
subj_4,5,9,9,3,2,1,561.300000000003,11,40,2
subj_4,5,10,10,1,1,1,541.300000000003,11,60,2
subj_4,5,11,11,1,1,1,528.599999999991,11,80,2
subj_4,5,12,12,5,2,0,869.899999999994,-1,80,2
subj_4,5,13,13,3,2,1,665.899999999994,-1,80,2
subj_4,5,14,14,1,1,1,661.800000000017,11,100,2
subj_4,5,15,15,1,1,1,731.700000000012,11,120,2
subj_4,5,16,16,1,1,1,537,11,140,2
subj_4,5,17,17,1,1,1,468.300000000017,-1,140,2
subj_4,5,18,18,4,2,0,762.300000000017,-11,120,2
subj_4,5,19,19,2,2,1,562.300000000017,1,120,2
subj_4,5,20,20,2,2,1,1558.20000000001,-11,100,2
subj_4,5,21,21,5,2,0,568.899999999994,-1,100,2
subj_4,5,22,22,2,2,1,568.800000000017,1,100,2
subj_4,5,23,23,1,1,1,1106.80000000002,11,120,2
subj_4,5,24,24,6,1,0,855.299999999988,1,120,2
subj_4,5,25,25,6,1,0,475.899999999994,1,120,2
subj_4,5,26,26,4,1,1,1299.29999999999,1,120,2
subj_4,5,27,27,6,1,0,557.899999999994,-11,100,2
subj_4,5,28,28,4,2,0,850.5,-11,80,2
subj_4,5,29,29,3,2,1,583.200000000012,11,100,2
subj_4,5,30,30,4,1,1,690.5,1,100,2
subj_4,5,31,31,4,1,1,493.799999999988,-11,80,2
subj_4,5,32,32,5,2,0,576.299999999988,-1,80,2
subj_4,5,33,33,4,1,1,403.600000000006,-11,60,2
subj_4,5,34,34,3,1,0,572.199999999983,-1,60,2
subj_4,5,35,35,4,1,1,606.199999999983,1,60,2
subj_4,5,36,36,3,2,1,520.799999999988,-1,60,2
subj_4,5,37,37,1,1,1,518.799999999988,11,80,2
subj_4,5,38,38,5,1,1,736.800000000017,11,100,2
subj_4,5,39,39,5,1,1,460.100000000035,-1,100,2
subj_4,5,40,40,2,2,1,556,1,100,2
subj_4,5,41,41,6,1,0,676.599999999977,1,100,2
subj_4,5,42,42,2,2,1,783.899999999965,1,100,2
subj_4,5,43,43,6,1,0,1241.20000000001,1,100,2
subj_4,5,44,44,5,2,0,730.5,11,120,2
subj_4,5,45,45,5,2,0,479.799999999988,-1,120,2
subj_4,5,46,46,2,2,1,571.099999999977,1,120,2
subj_4,5,47,47,1,1,1,533,11,140,2
subj_4,5,48,48,5,2,0,978.399999999965,11,160,2
subj_4,5,49,49,2,2,1,541.700000000012,1,160,2
subj_4,5,50,50,6,1,0,584.900000000023,-11,140,2
subj_4,5,51,51,3,2,1,674.100000000035,11,160,2
subj_4,5,52,52,5,1,1,872.100000000035,-1,160,2
subj_4,5,53,53,3,2,1,620.100000000035,-1,160,2
subj_4,5,54,54,5,1,1,702,-1,160,2
subj_4,5,55,55,3,2,1,618.700000000012,11,180,2
subj_4,5,56,56,6,1,0,632.700000000012,-11,160,2
subj_4,5,57,57,6,2,1,543.899999999965,1,160,2
subj_4,5,58,58,4,1,1,760.5,1,160,2
subj_4,5,59,59,6,2,1,680.5,-11,140,2
subj_4,5,60,60,6,1,0,527.799999999988,-11,120,2
subj_4,6,61,1,5,2,0,605.599999999977,11,20,2
subj_4,6,62,2,5,2,0,488.299999999988,-1,20,2
subj_4,6,63,3,3,2,1,669.5,11,40,2
subj_4,6,64,4,4,1,1,683.5,-11,20,2
subj_4,6,65,5,4,1,1,528.700000000012,1,20,2
subj_4,6,66,6,5,2,0,420.099999999977,11,40,2
subj_4,6,67,7,1,1,1,588,-1,40,2
subj_4,6,68,8,6,1,0,487.299999999988,-11,20,2
subj_4,6,69,9,1,1,1,814.599999999977,11,40,2
subj_4,6,70,10,5,2,0,1376.59999999998,-1,40,2
subj_4,6,71,11,2,2,1,529.900000000023,1,40,2
subj_4,6,72,12,5,2,0,891.100000000035,11,60,2
subj_4,6,73,13,5,2,0,1790.5,-1,60,2
subj_4,6,74,14,2,2,1,585.700000000012,1,60,2
subj_4,6,75,15,4,1,1,513,1,60,2
subj_4,6,76,16,6,1,0,567,-11,40,2
subj_4,6,77,17,5,2,0,478.900000000023,11,60,2
subj_4,6,78,18,4,2,0,1698.20000000001,-11,40,2
subj_4,6,79,19,6,1,0,510.799999999988,1,40,2
subj_4,6,80,20,5,2,0,674.800000000047,-1,40,2
subj_4,6,81,21,6,1,0,642.700000000012,-11,20,2
subj_4,6,82,22,1,1,1,2313.29999999999,11,40,2
subj_4,6,83,23,2,2,1,557.299999999988,1,40,2
subj_4,6,84,24,2,2,1,489.899999999965,1,40,2
subj_4,6,85,25,6,1,0,541.20000000007,1,40,2
subj_4,6,86,26,2,2,1,514.5,1,40,2
subj_4,6,87,27,3,1,0,476.5,-1,40,2
subj_4,6,88,28,2,2,1,543.699999999953,1,40,2
subj_4,6,89,29,4,1,1,784.29999999993,-11,20,2
subj_4,6,90,30,4,1,1,1099.59999999998,1,20,2
subj_4,6,91,31,6,1,0,576.29999999993,1,20,2
subj_4,6,92,32,1,1,1,523.599999999977,11,40,2
subj_4,6,93,33,1,1,1,449.5,11,60,2
subj_4,6,94,34,2,9,9,9999,9,60,2
subj_4,6,95,35,6,1,0,498.79999999993,-11,40,2
subj_4,6,96,36,3,2,1,551.29999999993,11,60,2
subj_4,6,97,37,1,1,1,488.099999999977,11,80,2
subj_4,6,98,38,3,2,1,533.29999999993,-1,80,2
subj_4,6,99,39,1,1,1,480.599999999977,11,100,2
subj_4,6,100,40,5,2,0,899.900000000023,-1,100,2
subj_4,6,101,41,3,1,0,818.5,-1,100,2
subj_4,6,102,42,5,1,1,700.5,-1,100,2
subj_4,6,103,43,4,1,1,529.099999999977,1,100,2
subj_4,6,104,44,1,1,1,546.400000000023,11,120,2
subj_4,6,105,45,2,2,1,541,1,120,2
subj_4,6,106,46,3,2,1,666.300000000047,-1,120,2
subj_4,6,107,47,1,1,1,426.199999999953,11,140,2
subj_4,6,108,48,4,1,1,503.5,-11,120,2
subj_4,6,109,49,4,1,1,538.199999999953,1,120,2
subj_4,6,110,50,6,2,1,1275.5,-11,100,2
subj_4,6,111,51,3,2,1,587.400000000023,-1,100,2
subj_4,6,112,52,6,1,0,500.699999999953,1,100,2
subj_4,6,113,53,2,2,1,703.400000000023,-11,80,2
subj_4,6,114,54,2,2,1,971.900000000023,1,80,2
subj_4,6,115,55,3,2,1,543.900000000023,11,100,2
subj_4,6,116,56,6,1,0,772.5,-11,80,2
subj_4,6,117,57,3,2,1,452.5,11,100,2
subj_4,6,118,58,4,1,1,425.099999999977,1,100,2
subj_4,6,119,59,1,1,1,511.099999999977,11,120,2
subj_4,6,120,60,3,1,0,1533,-1,120,2
subj_4,7,121,1,3,2,1,356.20000000007,11,20,2
subj_4,7,122,2,6,1,0,536.800000000047,1,20,2
subj_4,7,123,3,2,2,1,478.100000000093,1,20,2
subj_4,7,124,4,1,1,1,481.400000000023,11,40,2
subj_4,7,125,5,4,1,1,904.70000000007,1,40,2
subj_4,7,126,6,1,1,1,463.300000000047,-1,40,2
subj_4,7,127,7,5,2,0,655.300000000047,11,60,2
subj_4,7,128,8,1,1,1,653.899999999907,11,80,2
subj_4,7,129,9,5,1,1,812.5,11,100,2
subj_4,7,130,10,2,2,1,526.5,1,100,2
subj_4,7,131,11,3,2,1,639.79999999993,-1,100,2
subj_4,7,132,12,5,2,0,599.099999999977,11,120,2
subj_4,7,133,13,1,1,1,575.699999999953,11,140,2
subj_4,7,134,14,4,1,1,1139.69999999995,1,140,2
subj_4,7,135,15,3,2,1,559,-1,140,2
subj_4,7,136,16,1,1,1,439.599999999977,11,160,2
subj_4,7,137,17,5,1,1,558.79999999993,-1,160,2
subj_4,7,138,18,4,1,1,513.400000000023,1,160,2
subj_4,7,139,19,2,2,1,471.400000000023,1,160,2
subj_4,7,140,20,6,1,0,471.400000000023,1,160,2
subj_4,7,141,21,6,1,0,503.29999999993,-11,140,2
subj_4,7,142,22,6,2,1,794,1,140,2
subj_4,7,143,23,1,1,1,452.599999999977,11,160,2
subj_4,7,144,24,6,1,0,603.29999999993,-11,140,2
subj_4,7,145,25,6,2,1,397.900000000023,-11,120,2
subj_4,7,146,26,6,1,0,480.400000000023,1,120,2
subj_4,7,147,27,3,2,1,531.79999999993,11,140,2
subj_4,7,148,28,5,2,0,593,-1,140,2
subj_4,7,149,29,4,1,1,961.699999999953,-11,120,2
subj_4,7,150,30,5,1,1,617.599999999977,11,140,2
subj_4,7,151,31,4,1,1,607.599999999977,1,140,2
subj_4,7,152,32,3,2,1,614.199999999953,11,160,2
subj_4,7,153,33,1,1,1,480.199999999953,11,180,2
subj_4,7,154,34,2,2,1,571.400000000023,1,180,2
subj_4,7,155,35,2,1,0,637.400000000023,-11,160,2
subj_4,7,156,36,3,2,1,542.70000000007,11,180,2
subj_4,7,157,37,4,1,1,647.300000000047,-11,160,2
subj_4,7,158,38,5,2,0,837.900000000023,-1,160,2
subj_4,7,159,39,4,1,1,539.20000000007,-11,140,2
subj_4,7,160,40,6,1,0,524.5,-11,120,2
subj_4,7,161,41,1,1,1,560.5,11,140,2
subj_4,7,162,42,2,2,1,1082.40000000002,1,140,2
subj_4,7,163,43,5,2,0,589.70000000007,-1,140,2
subj_4,7,164,44,2,2,1,511,1,140,2
subj_4,7,165,45,2,2,1,568.900000000023,1,140,2
subj_4,7,166,46,4,1,1,514.900000000023,1,140,2
subj_4,7,167,47,1,1,1,558.900000000023,11,160,2
subj_4,7,168,48,1,1,1,491.5,11,180,2
subj_4,7,169,49,5,2,0,606.800000000047,11,200,2
subj_4,7,170,50,3,2,1,877.400000000023,11,220,2
subj_4,7,171,51,2,2,1,1130.80000000005,-11,200,2
subj_4,7,172,52,3,2,1,630,-1,200,2
subj_4,7,173,53,5,1,1,775.29999999993,-1,200,2
subj_4,7,174,54,4,1,1,707.199999999953,1,200,2
subj_4,7,175,55,6,1,0,591.899999999907,1,200,2
subj_4,7,176,56,3,2,1,569.199999999953,11,220,2
subj_4,7,177,57,3,2,1,481.099999999977,11,240,2
subj_4,7,178,58,4,2,0,660.399999999907,-11,220,2
subj_4,7,179,59,2,2,1,528.29999999993,1,220,2
subj_4,7,180,60,6,1,0,533.599999999977,-11,200,2
subj_4,8,181,1,3,2,1,380.800000000047,-1,0,2
subj_4,8,182,2,6,1,0,494.100000000093,-11,-20,2
subj_4,8,183,3,2,2,1,520.800000000047,1,-20,2
subj_4,8,184,4,4,1,1,790.700000000186,-11,-40,2
subj_4,8,185,5,5,1,1,562,11,-20,2
subj_4,8,186,6,1,1,1,571.899999999907,11,0,2
subj_4,8,187,7,1,1,1,491.899999999907,11,20,2
subj_4,8,188,8,2,2,1,483.199999999953,1,20,2
subj_4,8,189,9,3,2,1,578.5,11,40,2
subj_4,8,190,10,1,1,1,467.800000000047,11,60,2
subj_4,8,191,11,3,2,1,531.800000000047,11,80,2
subj_4,8,192,12,1,1,1,381.100000000093,11,100,2
subj_4,8,193,13,2,1,0,264.399999999907,-11,80,2
subj_4,8,194,14,6,1,0,542.300000000047,1,80,2
subj_4,8,195,15,6,1,0,627.5,-11,60,2
subj_4,8,196,16,5,1,1,650.799999999814,-1,60,2
subj_4,8,197,17,1,1,1,527.5,11,80,2
subj_4,8,198,18,1,1,1,524.799999999814,-1,80,2
subj_4,8,199,19,2,2,1,552.799999999814,1,80,2
subj_4,8,200,20,4,1,1,473.399999999907,1,80,2
subj_4,8,201,21,4,1,1,445.399999999907,1,80,2
subj_4,8,202,22,1,1,1,516,11,100,2
subj_4,8,203,23,4,1,1,501.800000000047,1,100,2
subj_4,8,204,24,5,2,0,648.5,-1,100,2
subj_4,8,205,25,2,2,1,559.100000000093,1,100,2
subj_4,8,206,26,3,2,1,579.800000000047,11,120,2
subj_4,8,207,27,4,1,1,683,-11,100,2
subj_4,8,208,28,1,9,9,9999,9,100,2
subj_4,8,209,29,5,2,0,729,11,120,2
subj_4,8,210,30,3,1,0,446.300000000047,-1,120,2
subj_4,8,211,31,4,1,1,546.90000000014,-11,100,2
subj_4,8,212,32,2,2,1,493.5,1,100,2
subj_4,8,213,33,4,1,1,626.09999999986,1,100,2
subj_4,8,214,34,5,2,0,617.399999999907,-1,100,2
subj_4,8,215,35,6,1,0,563.399999999907,1,100,2
subj_4,8,216,36,3,2,1,491.300000000047,11,120,2
subj_4,8,217,37,5,2,0,688.59999999986,-1,120,2
subj_4,8,218,38,2,2,1,2263.89999999991,-11,100,2
subj_4,8,219,39,5,1,1,397.899999999907,-1,100,2
subj_4,8,220,40,3,2,1,500.5,-1,100,2
subj_4,8,221,41,6,1,0,523.100000000093,-11,80,2
subj_4,8,222,42,3,2,1,565,-1,80,2
subj_4,8,223,43,5,2,0,581,11,100,2
subj_4,8,224,44,6,1,0,568.300000000047,1,100,2
subj_4,8,225,45,2,2,1,392.300000000047,1,100,2
subj_4,8,226,46,3,2,1,377.600000000093,11,120,2
subj_4,8,227,47,2,2,1,1660.90000000014,1,120,2
subj_4,8,228,48,6,1,0,1320.90000000014,1,120,2
subj_4,8,229,49,5,2,0,390.699999999953,11,140,2
subj_4,8,230,50,4,1,1,634,1,140,2
subj_4,8,231,51,1,1,1,691.300000000047,11,160,2
subj_4,8,232,52,6,1,0,510.600000000093,-11,140,2
subj_4,8,233,53,4,1,1,584.600000000093,1,140,2
subj_4,8,234,54,2,2,1,449.899999999907,1,140,2
subj_4,8,235,55,4,1,1,368.5,1,140,2
subj_4,8,236,56,3,2,1,538.5,11,160,2
subj_4,8,237,57,5,2,0,661.699999999953,-1,160,2
subj_4,8,238,58,6,1,0,523.800000000047,-11,140,2
subj_4,8,239,59,1,1,1,533.59999999986,11,160,2
subj_4,8,240,60,6,1,0,656.899999999907,1,160,2
subj_5,1,1,1,2,2,1,1949.79999999999,-11,-20,1
subj_5,1,2,2,2,2,1,1082.39999999999,1,-20,1
subj_5,1,3,3,5,1,1,2031.69999999998,-1,-20,1
subj_5,1,4,4,6,9,9,9999,9,-20,1
subj_5,1,5,5,4,1,1,531.599999999977,1,-20,1
subj_5,1,6,6,6,1,0,604.899999999965,1,-20,1
subj_5,1,7,7,3,2,1,1375.59999999998,11,0,1
subj_5,1,8,8,3,2,1,321.5,11,20,1
subj_5,1,9,9,3,2,1,251.400000000023,11,40,1
subj_5,1,10,10,3,2,1,308.100000000035,11,60,1
subj_5,1,11,11,6,1,0,728.700000000012,1,60,1
subj_5,1,12,12,3,2,1,794,11,80,1
subj_5,1,13,13,2,1,0,904.600000000035,-11,60,1
subj_5,1,14,14,3,1,0,1181.29999999999,11,80,1
subj_5,1,15,15,4,2,0,1472.60000000003,-11,60,1
subj_5,1,16,16,2,1,0,412.5,-11,40,1
subj_5,1,17,17,5,1,1,1010.39999999997,11,60,1
subj_5,1,18,18,1,1,1,220.299999999988,11,80,1
subj_5,1,19,19,6,1,0,1030.29999999999,-11,60,1
subj_5,1,20,20,6,2,1,347.599999999977,1,60,1
subj_5,1,21,21,5,2,0,736.299999999988,-1,60,1
subj_5,1,22,22,1,1,1,217.599999999977,11,80,1
subj_5,1,23,23,2,1,0,1159.5,-11,60,1
subj_5,1,24,24,5,1,1,523.5,-1,60,1
subj_5,1,25,25,4,2,0,1673.40000000002,-11,40,1
subj_5,1,26,26,4,2,0,1727.29999999999,-11,20,1
subj_5,1,27,27,2,1,0,652.599999999977,-11,0,1
subj_5,1,28,28,2,2,1,643.299999999988,1,0,1
subj_5,1,29,29,1,1,1,863.900000000023,11,20,1
subj_5,1,30,30,5,1,1,525.900000000023,11,40,1
subj_5,1,31,31,5,1,1,907.799999999988,-1,40,1
subj_5,1,32,32,4,2,0,672.5,-11,20,1
subj_5,1,33,33,1,1,1,1198.30000000005,11,40,1
subj_5,1,34,34,3,1,0,445,-1,40,1
subj_5,1,35,35,6,2,1,997.600000000035,1,40,1
subj_5,1,36,36,1,1,1,468.200000000012,11,60,1
subj_5,1,37,37,3,1,0,276.200000000012,-1,60,1
subj_5,1,38,38,6,2,1,499.5,1,60,1
subj_5,1,39,39,1,1,1,562.200000000012,11,80,1
subj_5,1,40,40,1,1,1,442.100000000035,11,100,1
subj_5,1,41,41,4,1,1,737.400000000023,1,100,1
subj_5,1,42,42,4,1,1,902.700000000012,-11,80,1
subj_5,1,43,43,6,2,1,355.299999999988,-11,60,1
subj_5,1,44,44,5,1,1,421.899999999965,11,80,1
subj_5,1,45,45,5,1,1,1015.89999999997,-1,80,1
subj_5,1,46,46,3,2,1,1319.79999999999,-1,80,1
subj_5,1,47,47,5,1,1,683.799999999988,-1,80,1
subj_5,1,48,48,3,2,1,2003.09999999998,-1,80,1
subj_5,1,49,49,1,1,1,1593.70000000001,11,100,1
subj_5,1,50,50,4,1,1,880.299999999988,1,100,1
subj_5,1,51,51,2,1,0,807.600000000035,-11,80,1
subj_5,1,52,52,6,2,1,370.199999999953,-11,60,1
subj_5,1,53,53,1,1,1,802.199999999953,11,80,1
subj_5,1,54,54,6,1,0,344.79999999993,1,80,1
subj_5,1,55,55,2,1,0,825.399999999907,-11,60,1
subj_5,1,56,56,2,2,1,889.399999999907,1,60,1
subj_5,1,57,57,1,2,0,950.699999999953,11,80,1
subj_5,1,58,58,5,2,0,249.199999999953,-1,80,1
subj_5,1,59,59,4,1,1,863.900000000023,-11,60,1
subj_5,1,60,60,4,2,0,571.79999999993,1,60,1
subj_5,2,61,1,5,2,0,425,-1,0,1
subj_5,2,62,2,3,1,0,335,-1,0,1
subj_5,2,63,3,1,1,1,384.29999999993,11,20,1
subj_5,2,64,4,3,1,0,897.599999999977,-1,20,1
subj_5,2,65,5,2,2,1,376.199999999953,1,20,1
subj_5,2,66,6,2,2,1,343.5,1,20,1
subj_5,2,67,7,4,2,0,428.099999999977,-11,0,1
subj_5,2,68,8,4,1,1,389.400000000023,-11,-20,1
subj_5,2,69,9,4,2,0,444.699999999953,-11,-40,1
subj_5,2,70,10,1,1,1,547.29999999993,11,-20,1
subj_5,2,71,11,5,1,1,327.900000000023,-1,-20,1
subj_5,2,72,12,5,1,1,667.199999999953,-1,-20,1
subj_5,2,73,13,3,2,1,2083.19999999995,-1,-20,1
subj_5,2,74,14,2,1,0,962.5,-11,-40,1
subj_5,2,75,15,4,2,0,644.400000000023,-11,-60,1
subj_5,2,76,16,2,2,1,289.099999999977,-11,-80,1
subj_5,2,77,17,6,1,0,1584.30000000005,1,-80,1
subj_5,2,78,18,6,1,0,1675.59999999998,-11,-100,1
subj_5,2,79,19,5,1,1,1111.59999999998,11,-80,1
subj_5,2,80,20,5,2,0,339.5,11,-60,1
subj_5,2,81,21,1,1,1,598.800000000047,11,-40,1
subj_5,2,82,22,4,1,1,1215.40000000002,1,-40,1
subj_5,2,83,23,6,2,1,373.400000000023,1,-40,1
subj_5,2,84,24,4,1,1,783.300000000047,-11,-60,1
subj_5,2,85,25,2,1,0,86.5999999999767,-11,-80,1
subj_5,2,86,26,2,2,1,353.900000000023,1,-80,1
subj_5,2,87,27,4,1,1,1372.5,-11,-100,1
subj_5,2,88,28,5,2,0,1086.5,-1,-100,1
subj_5,2,89,29,1,1,1,1161.80000000005,11,-80,1
subj_5,2,90,30,6,1,0,525.70000000007,1,-80,1
subj_5,2,91,31,2,2,1,849.70000000007,1,-80,1
subj_5,2,92,32,1,2,0,446.300000000047,-1,-80,1
subj_5,2,93,33,1,1,1,1269,11,-60,1
subj_5,2,94,34,4,1,1,644.900000000023,1,-60,1
subj_5,2,95,35,5,2,0,537.5,-1,-60,1
subj_5,2,96,36,2,2,1,482.800000000047,1,-60,1
subj_5,2,97,37,1,2,0,360.100000000093,-1,-60,1
subj_5,2,98,38,4,2,0,800.100000000093,-11,-80,1
subj_5,2,99,39,2,1,0,1278.70000000007,-11,-100,1
subj_5,2,100,40,3,1,0,164,-1,-100,1
subj_5,2,101,41,3,2,1,259.899999999907,-1,-100,1
subj_5,2,102,42,3,1,0,2475.79999999993,-1,-100,1
subj_5,2,103,43,6,1,0,1067.79999999993,1,-100,1
subj_5,2,104,44,5,1,1,1179.79999999993,11,-80,1
subj_5,2,105,45,3,1,0,927.099999999977,-1,-80,1
subj_5,2,106,46,3,2,1,314.399999999907,11,-60,1
subj_5,2,107,47,6,2,1,350.29999999993,1,-60,1
subj_5,2,108,48,6,1,0,942.900000000023,-11,-80,1
subj_5,2,109,49,6,2,1,271.5,1,-80,1
subj_5,2,110,50,3,2,1,2277.5,-1,-80,1
subj_5,2,111,51,2,2,1,1648.79999999993,1,-80,1
subj_5,2,112,52,5,2,0,825.400000000023,11,-60,1
subj_5,2,113,53,1,2,0,339.400000000023,-1,-60,1
subj_5,2,114,54,1,1,1,1614.69999999995,-1,-60,1
subj_5,2,115,55,1,2,0,328.599999999977,-1,-60,1
subj_5,2,116,56,6,2,1,1049.80000000005,-11,-80,1
subj_5,2,117,57,5,2,0,840.600000000093,11,-60,1
subj_5,2,118,58,6,1,0,481.800000000047,1,-60,1
subj_5,2,119,59,4,2,0,407.100000000093,-11,-80,1
subj_5,2,120,60,3,1,0,1185.69999999995,-1,-80,1
subj_5,3,121,1,3,2,1,507.600000000093,11,20,1
subj_5,3,122,2,5,2,0,552.09999999986,11,40,1
subj_5,3,123,3,1,2,0,724.799999999814,-1,40,1
subj_5,3,124,4,3,9,9,9999,9,40,1
subj_5,3,125,5,1,1,1,325.399999999907,11,60,1
subj_5,3,126,6,6,2,1,1123.29999999981,1,60,1
subj_5,3,127,7,4,1,1,1325.29999999981,-11,40,1
subj_5,3,128,8,5,1,1,2055.19999999995,-1,40,1
subj_5,3,129,9,3,1,0,1955.89999999991,-1,40,1
subj_5,3,130,10,5,1,1,1936.40000000014,11,60,1
subj_5,3,131,11,6,2,1,1507.69999999995,-11,40,1
subj_5,3,132,12,4,2,0,1870.30000000005,-11,20,1
subj_5,3,133,13,6,1,0,1578.30000000005,1,20,1
subj_5,3,134,14,3,2,1,1707.60000000009,-1,20,1
subj_5,3,135,15,2,2,1,1426.19999999995,1,20,1
subj_5,3,136,16,3,1,0,1755.39999999991,-1,20,1
subj_5,3,137,17,6,2,1,1576,1,20,1
subj_5,3,138,18,2,2,1,1627.39999999991,1,20,1
subj_5,3,139,19,2,2,1,1114.59999999986,1,20,1
subj_5,3,140,20,6,2,1,1740.59999999986,1,20,1
subj_5,3,141,21,2,2,1,733.899999999907,1,20,1
subj_5,3,142,22,6,2,1,1299.19999999995,-11,0,1
subj_5,3,143,23,4,1,1,2017.80000000005,1,0,1
subj_5,3,144,24,3,2,1,1961.80000000005,11,20,1
subj_5,3,145,25,5,2,0,1257.60000000009,-1,20,1
subj_5,3,146,26,4,9,9,9999,9,20,1
subj_5,3,147,27,1,1,1,1462.90000000014,11,40,1
subj_5,3,148,28,2,2,1,1362.90000000014,-11,20,1
subj_5,3,149,29,6,1,0,1382.80000000005,1,20,1
subj_5,3,150,30,1,2,0,1450.10000000009,-1,20,1
subj_5,3,151,31,2,1,0,704.800000000047,-11,0,1
subj_5,3,152,32,4,1,1,1255.40000000014,1,0,1
subj_5,3,153,33,6,1,0,1051.89999999991,-11,-20,1
subj_5,3,154,34,4,1,1,1240.60000000009,1,-20,1
subj_5,3,155,35,2,1,0,1063.89999999991,-11,-40,1
subj_5,3,156,36,1,2,0,775.800000000047,-1,-40,1
subj_5,3,157,37,2,2,1,1289.80000000005,1,-40,1
subj_5,3,158,38,5,2,0,1349.10000000009,-1,-40,1
subj_5,3,159,39,1,1,1,711.699999999953,11,-20,1
subj_5,3,160,40,5,1,1,683.59999999986,-1,-20,1
subj_5,3,161,41,5,1,1,1942.89999999991,11,0,1
subj_5,3,162,42,3,1,0,2017.5,-1,0,1
subj_5,3,163,43,1,1,1,1003.5,11,20,1
subj_5,3,164,44,3,1,0,1004.09999999986,11,40,1
subj_5,3,165,45,1,1,1,946.799999999814,11,60,1
subj_5,3,166,46,4,2,0,867.399999999907,1,60,1
subj_5,3,167,47,3,1,0,1225.30000000005,11,80,1
subj_5,3,168,48,4,2,0,1387.19999999995,-11,60,1
subj_5,3,169,49,2,2,1,1612.5,1,60,1
subj_5,3,170,50,5,1,1,1906.5,-1,60,1
subj_5,3,171,51,5,1,1,1249.10000000009,-1,60,1
subj_5,3,172,52,1,1,1,1233.69999999995,11,80,1
subj_5,3,173,53,5,2,0,1199,-1,80,1
subj_5,3,174,54,4,2,0,1567.69999999995,1,80,1
subj_5,3,175,55,2,1,0,1505.5,-11,60,1
subj_5,3,176,56,1,1,1,856.199999999953,-1,60,1
subj_5,3,177,57,6,1,0,1030.80000000005,1,60,1
subj_5,3,178,58,3,2,1,1758.09999999986,11,80,1
subj_5,3,179,59,4,2,0,1422.69999999995,-11,60,1
subj_5,3,180,60,6,1,0,966.699999999953,-11,40,1
subj_5,4,181,1,1,2,0,1161.10000000009,11,20,1
subj_5,4,182,2,6,1,0,813.100000000093,1,20,1
subj_5,4,183,3,2,1,0,1803.10000000009,1,20,1
subj_5,4,184,4,3,2,1,1173.70000000019,11,40,1
subj_5,4,185,5,6,1,0,793.700000000186,-11,20,1
subj_5,4,186,6,3,2,1,1010.30000000005,11,40,1
subj_5,4,187,7,1,2,0,1552.30000000005,-1,40,1
subj_5,4,188,8,5,1,1,1924.90000000014,11,60,1
subj_5,4,189,9,4,2,0,1442.80000000005,-11,40,1
subj_5,4,190,10,6,2,1,1339.39999999991,-11,20,1
subj_5,4,191,11,3,1,0,1588.69999999995,11,40,1
subj_5,4,192,12,3,1,0,1492,-1,40,1
subj_5,4,193,13,1,1,1,1801.30000000005,11,60,1
subj_5,4,194,14,6,1,0,1983.89999999991,-11,40,1
subj_5,4,195,15,4,2,0,2159.19999999995,-11,20,1
subj_5,4,196,16,4,1,1,2441.09999999986,-11,0,1
subj_5,4,197,17,3,2,1,930.299999999814,-1,0,1
subj_5,4,198,18,1,2,0,1659.69999999995,-1,0,1
subj_5,4,199,19,3,2,1,479.59999999986,11,20,1
subj_5,4,200,20,2,1,0,498.899999999907,-11,0,1
subj_5,4,201,21,1,2,0,1159.59999999986,-1,0,1
subj_5,4,202,22,1,2,0,663.5,-1,0,1
subj_5,4,203,23,1,1,1,499.40000000014,11,20,1
subj_5,4,204,24,6,9,9,9999,9,20,1
subj_5,4,205,25,3,2,1,958.600000000093,-1,20,1
subj_5,4,206,26,5,1,1,393.300000000047,11,40,1
subj_5,4,207,27,3,1,0,1241.90000000014,-1,40,1
subj_5,4,208,28,1,1,1,1679.19999999995,11,60,1
subj_5,4,209,29,2,2,1,1076.5,1,60,1
subj_5,4,210,30,5,1,1,641.800000000047,-1,60,1
subj_5,4,211,31,3,2,1,1967,11,80,1
subj_5,4,212,32,2,1,0,1321,-11,60,1
subj_5,4,213,33,1,2,0,782.899999999907,-1,60,1
subj_5,4,214,34,2,1,0,856.199999999953,-11,40,1
subj_5,4,215,35,4,2,0,1760.89999999991,1,40,1
subj_5,4,216,36,2,2,1,954.800000000047,1,40,1
subj_5,4,217,37,4,2,0,1829.5,1,40,1
subj_5,4,218,38,4,2,0,606.700000000186,-11,20,1
subj_5,4,219,39,2,1,0,1533.30000000005,-11,0,1
subj_5,4,220,40,6,2,1,354.600000000093,-11,-20,1
subj_5,4,221,41,5,2,0,279.200000000186,-1,-20,1
subj_5,4,222,42,6,2,1,940.5,1,-20,1
subj_5,4,223,43,2,2,1,701.800000000047,1,-20,1
subj_5,4,224,44,2,2,1,596.5,1,-20,1
subj_5,4,225,45,4,2,0,639.100000000093,-11,-40,1
subj_5,4,226,46,4,1,1,912.40000000014,1,-40,1
subj_5,4,227,47,4,1,1,846.300000000047,1,-40,1
subj_5,4,228,48,4,1,1,710.899999999907,1,-40,1
subj_5,4,229,49,6,9,9,9999,9,-40,1
subj_5,4,230,50,5,1,1,1651.5,11,-20,1
subj_5,4,231,51,2,2,1,1474.10000000009,1,-20,1
subj_5,4,232,52,3,1,0,1512.10000000009,-1,-20,1
subj_5,4,233,53,6,2,1,2492.10000000009,1,-20,1
subj_5,4,234,54,5,1,1,1043.19999999995,-1,-20,1
subj_5,4,235,55,5,2,0,407.899999999907,11,0,1
subj_5,4,236,56,1,2,0,1320.5,-1,0,1
subj_5,4,237,57,5,2,0,820.5,-1,0,1
subj_5,4,238,58,5,2,0,644.399999999907,11,20,1
subj_5,4,239,59,6,1,0,781.09999999986,1,20,1
subj_5,4,240,60,5,2,0,1284.39999999991,11,40,1
subj_5,5,1,1,6,2,1,507.900000000009,1,0,2
subj_5,5,2,2,4,1,1,814.5,1,0,2
subj_5,5,3,3,4,1,1,1584.5,1,0,2
subj_5,5,4,4,3,2,1,1331.8,-1,0,2
subj_5,5,5,5,1,2,0,1421.10000000001,-1,0,2
subj_5,5,6,6,3,1,0,1215.10000000001,-1,0,2
subj_5,5,7,7,4,1,1,1480.89999999999,-11,-20,2
subj_5,5,8,8,4,2,0,286.199999999997,1,-20,2
subj_5,5,9,9,5,2,0,1845.50000000001,-1,-20,2
subj_5,5,10,10,5,2,0,1156.20000000001,-1,-20,2
subj_5,5,11,11,3,1,0,2044.80000000002,-1,-20,2
subj_5,5,12,12,2,2,1,629.400000000023,1,-20,2
subj_5,5,13,13,1,2,0,834.700000000012,11,0,2
subj_5,5,14,14,1,1,1,1921.89999999999,11,20,2
subj_5,5,15,15,6,2,1,2285.89999999999,1,20,2
subj_5,5,16,16,3,1,0,1881.20000000001,-1,20,2
subj_5,5,17,17,3,1,0,2416.5,11,40,2
subj_5,5,18,18,5,2,0,1978.39999999999,11,60,2
subj_5,5,19,19,5,1,1,1533.70000000001,-1,60,2
subj_5,5,20,20,4,2,0,1257,-11,40,2
subj_5,5,21,21,2,1,0,253.600000000006,-11,20,2
subj_5,5,22,22,6,1,0,538.200000000012,1,20,2
subj_5,5,23,23,5,1,1,1795.5,-1,20,2
subj_5,5,24,24,2,1,0,812.100000000006,-11,0,2
subj_5,5,25,25,6,2,1,1466.10000000001,-11,-20,2
subj_5,5,26,26,6,1,0,1712.10000000001,1,-20,2
subj_5,5,27,27,1,2,0,1612,-1,-20,2
subj_5,5,28,28,3,2,1,2146,11,0,2
subj_5,5,29,29,2,2,1,2406.60000000001,-11,-20,2
subj_5,5,30,30,3,2,1,1921.10000000001,-1,-20,2
subj_5,5,31,31,1,1,1,435.100000000035,11,0,2
subj_5,5,32,32,5,1,1,688.400000000023,11,20,2
subj_5,5,33,33,1,1,1,675.700000000012,11,40,2
subj_5,5,34,34,6,1,0,753.700000000012,1,40,2
subj_5,5,35,35,5,2,0,436.300000000047,-1,40,2
subj_5,5,36,36,1,2,0,1177.60000000003,-1,40,2
subj_5,5,37,37,2,2,1,610.900000000023,1,40,2
subj_5,5,38,38,3,2,1,1796.79999999999,11,60,2
subj_5,5,39,39,3,2,1,255.399999999965,11,80,2
subj_5,5,40,40,1,1,1,1326,11,100,2
subj_5,5,41,41,3,2,1,767.299999999988,11,120,2
subj_5,5,42,42,4,2,0,815.299999999988,1,120,2
subj_5,5,43,43,6,2,1,1849.29999999999,1,120,2
subj_5,5,44,44,4,2,0,1455.89999999997,-11,100,2
subj_5,5,45,45,5,1,1,1094.40000000002,-1,100,2
subj_5,5,46,46,6,1,0,875,-11,80,2
subj_5,5,47,47,6,2,1,1095,1,80,2
subj_5,5,48,48,2,2,1,1459.60000000003,1,80,2
subj_5,5,49,49,4,2,0,883.600000000035,-11,60,2
subj_5,5,50,50,4,1,1,270.900000000023,1,60,2
